GpsCycle,GpsWeek,GpsToW[s],TimeStartup[ns],UnCompAccX[m/s^2],UnCompAccY[m/s^2],UnCompAccZ[m/s^2],UnCompGyroX[rad/s],UnCompGyroY[rad/s],UnCompGyroZ[rad/s]
1,18,518413,0,-5.91933336e-19,-0.0200002659,0.0339158652,7.29211515e-05,-1.57842418e-07,-0.02
1,18,518413.1,100000000,5.31748009e-10,-0.0200002659,0.0339155735,7.29210141e-05,-1.20002121e-08,-0.02
1,18,518413.2,200000000,1.06348751e-09,-0.0200002659,0.0339152818,7.2920585e-05,1.3384141e-07,-0.02
1,18,518413.3,300000000,1.59521001e-09,-0.0200002659,0.0339149901,7.29198643e-05,2.79681866e-07,-0.02
1,18,518413.4,400000000,2.12690697e-09,-0.0200002659,0.0339146985,7.29188519e-05,4.25520855e-07,-0.02
1,18,518413.5,500000000,2.65856991e-09,-0.0200002658,0.0339144068,7.29175478e-05,5.71357227e-07,-0.02
1,18,518413.6,600000000,3.19019031e-09,-0.0200002658,0.0339141151,7.2915952e-05,7.17190682e-07,-0.02
1,18,518413.7,700000000,3.72175967e-09,-0.0200002658,0.0339138235,7.29140646e-05,8.63020637e-07,-0.02
1,18,518413.8,799999999,4.25326947e-09,-0.0200002658,0.0339135318,7.29118855e-05,1.00884651e-06,-0.02
1,18,518413.9,899999999,4.78471123e-09,-0.0200002658,0.0339132402,7.29094148e-05,1.154668e-06,-0.02
1,18,518414,999999999,5.31607644e-09,-0.0200002658,0.0339129485,7.29066524e-05,1.30048395e-06,-0.02
1,18,518414.1,1099999999,5.84735658e-09,-0.0200002657,0.0339126569,7.29035984e-05,1.44629407e-06,-0.02
1,18,518414.2,1200000000,6.37854317e-09,-0.0200002657,0.0339123653,7.29002528e-05,1.59209778e-06,-0.02
1,18,518414.3,1300000000,6.9096277e-09,-0.0200002657,0.0339120737,7.28966155e-05,1.73789477e-06,-0.02
1,18,518414.4,1400000000,7.44060169e-09,-0.0200002657,0.0339117821,7.28926867e-05,1.88368389e-06,-0.02
1,18,518414.5,1500000000,7.9714566e-09,-0.0200002656,0.0339114906,7.28884663e-05,2.02946513e-06,-0.02
1,18,518414.6,1600000000,8.502184e-09,-0.0200002656,0.033911199,7.28839544e-05,2.17523734e-06,-0.02
1,18,518414.7,1700000000,9.03277534e-09,-0.0200002656,0.0339109075,7.28791509e-05,2.32100049e-06,-0.02
1,18,518414.8,1800000000,9.56322217e-09,-0.0200002655,0.033910616,7.28740559e-05,2.46675345e-06,-0.02
1,18,518414.9,1900000000,1.0093516e-08,-0.0200002655,0.0339103245,7.28686695e-05,2.6124962e-06,-0.02
1,18,518415,2000000000,1.06236483e-08,-0.0200002655,0.033910033,7.28629915e-05,2.75822758e-06,-0.02
1,18,518415.1,2100000000,1.11536106e-08,-0.0200002654,0.0339097416,7.28570221e-05,2.90394758e-06,-0.02
1,18,518415.2,2200000000,1.16833945e-08,-0.0200002654,0.0339094502,7.28507612e-05,3.04965504e-06,-0.02
1,18,518415.3,2300000000,1.22129915e-08,-0.0200002653,0.0339091588,7.2844209e-05,3.19534997e-06,-0.02
1,18,518415.4,2400000000,1.2742393e-08,-0.0200002653,0.0339088674,7.28373653e-05,3.34103147e-06,-0.02
1,18,518415.5,2500000000,1.32715907e-08,-0.0200002652,0.0339085761,7.28302303e-05,3.48669899e-06,-0.02
1,18,518415.6,2600000000,1.3800576e-08,-0.0200002652,0.0339082848,7.2822804e-05,3.63235192e-06,-0.02
1,18,518415.7,2700000000,1.43293405e-08,-0.0200002651,0.0339079935,7.28150864e-05,3.77798941e-06,-0.02
1,18,518415.8,2800000000,1.48578757e-08,-0.020000265,0.0339077023,7.28070776e-05,3.92361144e-06,-0.02
1,18,518415.9,2900000000,1.53861733e-08,-0.020000265,0.0339074111,7.27987775e-05,4.06921715e-06,-0.02
1,18,518416,3000000000,1.59142246e-08,-0.0200002649,0.0339071199,7.27901862e-05,4.21480595e-06,-0.02
1,18,518416.1,3100000000,1.64420213e-08,-0.0200002649,0.0339068287,7.27813037e-05,4.36037725e-06,-0.02
1,18,518416.2,3200000000,1.69695549e-08,-0.0200002648,0.0339065376,7.27721301e-05,4.50593049e-06,-0.02
1,18,518416.3,3300000000,1.74968171e-08,-0.0200002647,0.0339062466,7.27626655e-05,4.65146507e-06,-0.02
1,18,518416.4,3400000000,1.80237992e-08,-0.0200002646,0.0339059555,7.27529097e-05,4.79698041e-06,-0.02
1,18,518416.5,3500000000,1.8550493e-08,-0.0200002646,0.0339056646,7.2742863e-05,4.94247565e-06,-0.02
1,18,518416.6,3600000000,1.907689e-08,-0.0200002645,0.0339053736,7.27325253e-05,5.08795105e-06,-0.02
1,18,518416.7,3700000000,1.96029818e-08,-0.0200002644,0.0339050827,7.27218966e-05,5.23340519e-06,-0.02
1,18,518416.8,3800000000,2.01287599e-08,-0.0200002643,0.0339047918,7.2710977e-05,5.37883776e-06,-0.02
1,18,518416.9,3900000000,2.06542159e-08,-0.0200002643,0.033904501,7.26997667e-05,5.52424819e-06,-0.02
1,18,518417,4000000000,2.11793415e-08,-0.0200002642,0.0339042102,7.26882655e-05,5.66963588e-06,-0.02
1,18,518417.1,4100000000,2.17041282e-08,-0.0200002641,0.0339039195,7.26764735e-05,5.81500055e-06,-0.02
1,18,518417.2,4200000000,2.22285677e-08,-0.020000264,0.0339036288,7.26643908e-05,5.96034105e-06,-0.02
1,18,518417.3,4300000000,2.27526515e-08,-0.0200002639,0.0339033382,7.26520175e-05,6.10565707e-06,-0.02
1,18,518417.4,4400000000,2.32763712e-08,-0.0200002638,0.0339030476,7.26393536e-05,6.25094804e-06,-0.02
1,18,518417.5,4500000000,2.37997185e-08,-0.0200002637,0.0339027571,7.26263991e-05,6.39621366e-06,-0.02
1,18,518417.6,4600000000,2.43226851e-08,-0.0200002636,0.0339024666,7.26131541e-05,6.54145278e-06,-0.02
1,18,518417.7,4699999999,2.48452624e-08,-0.0200002635,0.0339021762,7.25996186e-05,6.6866651e-06,-0.02
1,18,518417.8,4799999999,2.53674423e-08,-0.0200002634,0.0339018858,7.25857927e-05,6.83185005e-06,-0.02
1,18,518417.9,4899999999,2.58892163e-08,-0.0200002633,0.0339015955,7.25716765e-05,6.97700731e-06,-0.02
1,18,518418,4999999999,2.6410576e-08,-0.0200002632,0.0339013052,7.255727e-05,7.12213576e-06,-0.02
1,18,518418.1,5099999999,2.69315132e-08,-0.0200002631,0.033901015,7.25425732e-05,7.26723537e-06,-0.02
1,18,518418.2,5199999999,2.74520194e-08,-0.020000263,0.0339007249,7.25275863e-05,7.41230528e-06,-0.02
1,18,518418.3,5299999999,2.79720865e-08,-0.0200002629,0.0339004348,7.25123093e-05,7.55734462e-06,-0.02
1,18,518418.4,5399999999,2.8491706e-08,-0.0200002628,0.0339001448,7.24967422e-05,7.70235339e-06,-0.02
1,18,518418.5,5499999999,2.90108696e-08,-0.0200002627,0.0338998549,7.24808851e-05,7.84733043e-06,-0.02
1,18,518418.6,5599999999,2.9529569e-08,-0.0200002626,0.033899565,7.24647381e-05,7.99227574e-06,-0.02
1,18,518418.7,5699999999,3.0047796e-08,-0.0200002624,0.0338992751,7.24483012e-05,8.13718844e-06,-0.02
1,18,518418.8,5799999999,3.05655422e-08,-0.0200002623,0.0338989854,7.24315746e-05,8.28206768e-06,-0.02
1,18,518418.9,5899999999,3.10827994e-08,-0.0200002622,0.0338986957,7.24145581e-05,8.42691345e-06,-0.02
1,18,518419,5999999999,3.15995592e-08,-0.0200002621,0.0338984061,7.23972521e-05,8.57172488e-06,-0.02
1,18,518419.1,6099999999,3.21158134e-08,-0.0200002619,0.0338981165,7.23796564e-05,8.71650139e-06,-0.02
1,18,518419.2,6199999999,3.26315538e-08,-0.0200002618,0.033897827,7.23617712e-05,8.8612424e-06,-0.02
1,18,518419.3,6299999999,3.31467721e-08,-0.0200002617,0.0338975376,7.23435966e-05,9.00594733e-06,-0.02
1,18,518419.4,6399999999,3.36614601e-08,-0.0200002615,0.0338972483,7.23251325e-05,9.15061561e-06,-0.02
1,18,518419.5,6499999999,3.41756094e-08,-0.0200002614,0.033896959,7.23063792e-05,9.29524637e-06,-0.02
1,18,518419.6,6599999999,3.4689212e-08,-0.0200002613,0.0338966698,7.22873367e-05,9.43983961e-06,-0.02
1,18,518419.7,6699999999,3.52022595e-08,-0.0200002611,0.0338963807,7.22680049e-05,9.58439445e-06,-0.02
1,18,518419.8,6799999999,3.57147438e-08,-0.020000261,0.0338960917,7.22483841e-05,9.72891033e-06,-0.02
1,18,518419.9,6899999999,3.62266566e-08,-0.0200002608,0.0338958027,7.22284743e-05,9.87338665e-06,-0.02
1,18,518420,6999999999,3.67379899e-08,-0.0200002607,0.0338955139,7.22082756e-05,1.00178229e-05,-0.02
1,18,518420.1,7099999999,3.72487353e-08,-0.0200002606,0.0338952251,7.21877881e-05,1.01622184e-05,-0.02
1,18,518420.2,7199999999,3.77588847e-08,-0.0200002604,0.0338949364,7.21670117e-05,1.03065726e-05,-0.02
1,18,518420.3,7299999999,3.826843e-08,-0.0200002602,0.0338946478,7.21459467e-05,1.04508852e-05,-0.02
1,18,518420.4,7399999999,3.8777363e-08,-0.0200002601,0.0338943592,7.21245932e-05,1.05951552e-05,-0.02
1,18,518420.5,7499999999,3.92856756e-08,-0.0200002599,0.0338940708,7.21029511e-05,1.07393821e-05,-0.02
1,18,518420.6,7599999999,3.97933596e-08,-0.0200002598,0.0338937824,7.20810206e-05,1.08835654e-05,-0.02
1,18,518420.7,7699999999,4.03004069e-08,-0.0200002596,0.0338934941,7.20588017e-05,1.10277046e-05,-0.02
1,18,518420.8,7799999999,4.08068094e-08,-0.0200002595,0.0338932059,7.20362946e-05,1.11717993e-05,-0.02
1,18,518420.9,7899999999,4.1312559e-08,-0.0200002593,0.0338929178,7.20134994e-05,1.13158484e-05,-0.02
1,18,518421,7999999999,4.18176476e-08,-0.0200002591,0.0338926298,7.19904161e-05,1.14598516e-05,-0.02
1,18,518421.1,8099999999,4.23220671e-08,-0.020000259,0.0338923419,7.19670448e-05,1.16038083e-05,-0.02
1,18,518421.2,8199999999,4.28258094e-08,-0.0200002588,0.0338920541,7.19433857e-05,1.17477183e-05,-0.02
1,18,518421.3,8299999999,4.33288666e-08,-0.0200002586,0.0338917664,7.19194388e-05,1.18915806e-05,-0.02
1,18,518421.4,8399999999,4.38312305e-08,-0.0200002584,0.0338914787,7.18952042e-05,1.20353945e-05,-0.02
1,18,518421.5,8499999999,4.4332893e-08,-0.0200002583,0.0338911912,7.1870682e-05,1.21791599e-05,-0.02
1,18,518421.6,8599999999,4.48338463e-08,-0.0200002581,0.0338909038,7.18458723e-05,1.23228756e-05,-0.02
1,18,518421.7,8699999999,4.53340822e-08,-0.0200002579,0.0338906164,7.18207752e-05,1.24665414e-05,-0.02
1,18,518421.8,8799999999,4.58335928e-08,-0.0200002577,0.0338903292,7.17953908e-05,1.26101571e-05,-0.02
1,18,518421.9,8899999999,4.633237e-08,-0.0200002575,0.0338900421,7.17697192e-05,1.27537216e-05,-0.02
1,18,518422,8999999999,4.6830406e-08,-0.0200002574,0.0338897551,7.17437606e-05,1.28972342e-05,-0.02
1,18,518422.1,9099999999,4.73276926e-08,-0.0200002572,0.0338894681,7.17175149e-05,1.30406949e-05,-0.02
1,18,518422.2,9199999999,4.7824222e-08,-0.020000257,0.0338891813,7.16909824e-05,1.31841025e-05,-0.02
1,18,518422.3,9299999999,4.83199862e-08,-0.0200002568,0.0338888946,7.16641631e-05,1.3327457e-05,-0.02
1,18,518422.4,9399999999,4.88149773e-08,-0.0200002566,0.033888608,7.16370572e-05,1.34707576e-05,-0.02
1,18,518422.5,9499999999,4.93091873e-08,-0.0200002564,0.0338883215,7.16096647e-05,1.36140036e-05,-0.02
1,18,518422.6,9599999999,4.98026084e-08,-0.0200002562,0.0338880351,7.15819857e-05,1.37571943e-05,-0.02
1,18,518422.7,9699999999,5.02952327e-08,-0.020000256,0.0338877489,7.15540204e-05,1.39003296e-05,-0.02
1,18,518422.8,9799999999,5.07870522e-08,-0.0200002558,0.0338874627,7.15257689e-05,1.40434087e-05,-0.02
1,18,518422.9,9899999999,5.12780592e-08,-0.0200002556,0.0338871767,7.14972312e-05,1.4186431e-05,-0.02
1,18,518423,9999999999,5.17682457e-08,-0.0200002554,0.0338868907,7.14684076e-05,1.43293959e-05,-0.02
1,18,518423.1,10099999999,5.22576039e-08,-0.0200002552,0.0338866049,7.14392981e-05,1.44723028e-05,-0.02
1,18,518423.2,10199999999,5.2746126e-08,-0.020000255,0.0338863192,7.14099028e-05,1.46151512e-05,-0.02
1,18,518423.3,10299999999,5.32338041e-08,-0.0200002548,0.0338860337,7.13802219e-05,1.47579406e-05,-0.02
1,18,518423.4,10399999999,5.37206306e-08,-0.0200002545,0.0338857482,7.13502554e-05,1.49006702e-05,-0.02
1,18,518423.5,10499999999,5.42065974e-08,-0.0200002543,0.0338854629,7.13200035e-05,1.50433397e-05,-0.02
1,18,518423.6,10599999999,5.4691697e-08,-0.0200002541,0.0338851776,7.12894664e-05,1.51859483e-05,-0.02
1,18,518423.7,10699999999,5.51759215e-08,-0.0200002539,0.0338848926,7.1258644e-05,1.53284956e-05,-0.02
1,18,518423.8,10799999999,5.56592632e-08,-0.0200002537,0.0338846076,7.12275366e-05,1.54709809e-05,-0.02
1,18,518423.9,10899999999,5.61417144e-08,-0.0200002534,0.0338843227,7.11961443e-05,1.56134037e-05,-0.02
1,18,518424,10999999999,5.66232673e-08,-0.0200002532,0.033884038,7.11644672e-05,1.57557637e-05,-0.02
1,18,518424.1,11099999999,5.71039142e-08,-0.020000253,0.0338837534,7.11325055e-05,1.58980597e-05,-0.02
1,18,518424.2,11199999999,5.75836474e-08,-0.0200002528,0.033883469,7.11002592e-05,1.60402916e-05,-0.02
1,18,518424.3,11299999999,5.80624594e-08,-0.0200002525,0.0338831846,7.10677284e-05,1.61824586e-05,-0.02
1,18,518424.4,11399999999,5.85403423e-08,-0.0200002523,0.0338829004,7.10349134e-05,1.63245606e-05,-0.02
1,18,518424.5,11499999999,5.90172886e-08,-0.0200002521,0.0338826164,7.10018143e-05,1.64665963e-05,-0.02
1,18,518424.6,11599999999,5.94932906e-08,-0.0200002518,0.0338823324,7.09684311e-05,1.66085656e-05,-0.02
1,18,518424.7,11699999999,5.99683407e-08,-0.0200002516,0.0338820486,7.09347641e-05,1.67504678e-05,-0.02
1,18,518424.8,11799999999,6.04424313e-08,-0.0200002513,0.033881765,7.09008133e-05,1.68923026e-05,-0.02
1,18,518424.9,11899999999,6.09155548e-08,-0.0200002511,0.0338814814,7.08665788e-05,1.7034069e-05,-0.02
1,18,518425,11999999999,6.13877037e-08,-0.0200002509,0.033881198,7.08320609e-05,1.71757668e-05,-0.02
1,18,518425.1,12099999999,6.18588704e-08,-0.0200002506,0.0338809148,7.07972597e-05,1.73173951e-05,-0.02
1,18,518425.2,12199999999,6.23290473e-08,-0.0200002504,0.0338806317,7.07621753e-05,1.74589537e-05,-0.02
1,18,518425.3,12299999999,6.2798227e-08,-0.0200002501,0.0338803487,7.07268078e-05,1.76004416e-05,-0.02
1,18,518425.4,12399999999,6.32664019e-08,-0.0200002499,0.0338800658,7.06911573e-05,1.77418588e-05,-0.02
1,18,518425.5,12499999999,6.37335646e-08,-0.0200002496,0.0338797832,7.06552241e-05,1.7883204e-05,-0.02
1,18,518425.6,12599999999,6.41997075e-08,-0.0200002493,0.0338795006,7.06190083e-05,1.80244774e-05,-0.02
1,18,518425.7,12699999999,6.46648232e-08,-0.0200002491,0.0338792182,7.058251e-05,1.81656778e-05,-0.02
1,18,518425.8,12799999999,6.51289043e-08,-0.0200002488,0.033878936,7.05457293e-05,1.83068051e-05,-0.02
1,18,518425.9,12899999999,6.55919433e-08,-0.0200002486,0.0338786539,7.05086665e-05,1.84478586e-05,-0.02
1,18,518426,12999999999,6.60539329e-08,-0.0200002483,0.0338783719,7.04713216e-05,1.85888377e-05,-0.02
1,18,518426.1,13099999999,6.65148656e-08,-0.020000248,0.0338780901,7.04336948e-05,1.87297415e-05,-0.02
1,18,518426.2,13199999999,6.69747341e-08,-0.0200002478,0.0338778084,7.03957862e-05,1.887057e-05,-0.02
1,18,518426.3,13299999999,6.74335309e-08,-0.0200002475,0.0338775269,7.03575961e-05,1.90113224e-05,-0.02
1,18,518426.4,13399999999,6.78912489e-08,-0.0200002472,0.0338772456,7.03191245e-05,1.91519982e-05,-0.02
1,18,518426.5,13499999999,6.83478805e-08,-0.020000247,0.0338769644,7.02803716e-05,1.92925967e-05,-0.02
1,18,518426.6,13599999999,6.88034186e-08,-0.0200002467,0.0338766833,7.02413376e-05,1.94331171e-05,-0.02
1,18,518426.7,13699999999,6.92578559e-08,-0.0200002464,0.0338764025,7.02020226e-05,1.95735594e-05,-0.02
1,18,518426.8,13799999999,6.9711185e-08,-0.0200002461,0.0338761217,7.01624268e-05,1.97139229e-05,-0.02
1,18,518426.9,13899999999,7.01633988e-08,-0.0200002459,0.0338758412,7.01225503e-05,1.98542068e-05,-0.02
1,18,518427,13999999999,7.06144899e-08,-0.0200002456,0.0338755608,7.00823933e-05,1.99944107e-05,-0.02
1,18,518427.1,14099999999,7.10644512e-08,-0.0200002453,0.0338752805,7.0041956e-05,2.0134534e-05,-0.02
1,18,518427.2,14199999999,7.15132755e-08,-0.020000245,0.0338750004,7.00012385e-05,2.02745761e-05,-0.02
1,18,518427.3,14299999999,7.19609556e-08,-0.0200002447,0.0338747205,6.9960241e-05,2.04145364e-05,-0.02
1,18,518427.4,14399999999,7.24074843e-08,-0.0200002444,0.0338744408,6.99189636e-05,2.05544145e-05,-0.02
1,18,518427.5,14499999999,7.28528544e-08,-0.0200002441,0.0338741612,6.98774066e-05,2.069421e-05,-0.02
1,18,518427.6,14599999999,7.3297059e-08,-0.0200002438,0.0338738817,6.983557e-05,2.08339216e-05,-0.02
1,18,518427.7,14699999999,7.37400907e-08,-0.0200002435,0.0338736025,6.9793454e-05,2.09735494e-05,-0.02
1,18,518427.8,14799999999,7.41819427e-08,-0.0200002433,0.0338733234,6.97510589e-05,2.11130931e-05,-0.02
1,18,518427.9,14899999999,7.46226077e-08,-0.020000243,0.0338730445,6.97083847e-05,2.12525513e-05,-0.02
1,18,518428,14999999999,7.50620788e-08,-0.0200002427,0.0338727657,6.96654317e-05,2.13919239e-05,-0.02
1,18,518428.1,15099999999,7.55003489e-08,-0.0200002424,0.0338724872,6.96222001e-05,2.15312103e-05,-0.02
1,18,518428.2,15199999999,7.59374109e-08,-0.0200002421,0.0338722088,6.95786899e-05,2.16704103e-05,-0.02
1,18,518428.3,15299999999,7.6373258e-08,-0.0200002417,0.0338719306,6.95349014e-05,2.18095226e-05,-0.02
1,18,518428.4,15399999999,7.68078831e-08,-0.0200002414,0.0338716525,6.94908347e-05,2.19485471e-05,-0.02
1,18,518428.5,15499999999,7.72412793e-08,-0.0200002411,0.0338713746,6.94464901e-05,2.20874834e-05,-0.02
1,18,518428.6,15599999999,7.76734396e-08,-0.0200002408,0.0338710969,6.94018676e-05,2.22263305e-05,-0.02
1,18,518428.7,15699999999,7.81043572e-08,-0.0200002405,0.0338708194,6.93569676e-05,2.2365088e-05,-0.02
1,18,518428.8,15799999999,7.85340251e-08,-0.0200002402,0.0338705421,6.93117901e-05,2.25037558e-05,-0.02
1,18,518428.9,15899999999,7.89624364e-08,-0.0200002399,0.0338702649,6.92663353e-05,2.26423326e-05,-0.02
1,18,518429,15999999999,7.93895843e-08,-0.0200002396,0.033869988,6.92206035e-05,2.27808184e-05,-0.02
1,18,518429.1,16099999999,7.98154621e-08,-0.0200002392,0.0338697112,6.91745947e-05,2.29192123e-05,-0.02
1,18,518429.2,16199999999,8.02400627e-08,-0.0200002389,0.0338694346,6.91283093e-05,2.30575141e-05,-0.02
1,18,518429.3,16299999999,8.06633796e-08,-0.0200002386,0.0338691582,6.90817473e-05,2.31957228e-05,-0.02
1,18,518429.4,16399999999,8.10854058e-08,-0.0200002383,0.0338688819,6.90349089e-05,2.33338383e-05,-0.02
1,18,518429.5,16499999999,8.15061346e-08,-0.020000238,0.0338686059,6.89877945e-05,2.34718596e-05,-0.02
1,18,518429.6,16599999999,8.19255594e-08,-0.0200002376,0.03386833,6.8940404e-05,2.36097867e-05,-0.02
1,18,518429.7,16699999999,8.23436733e-08,-0.0200002373,0.0338680544,6.88927378e-05,2.37476187e-05,-0.02
1,18,518429.8,16799999999,8.27604698e-08,-0.020000237,0.0338677789,6.8844796e-05,2.38853547e-05,-0.02
1,18,518429.9,16899999999,8.3175942e-08,-0.0200002366,0.0338675036,6.87965787e-05,2.40229949e-05,-0.02
1,18,518430,16999999999,8.35900835e-08,-0.0200002363,0.0338672285,6.87480863e-05,2.41605381e-05,-0.02
1,18,518430.1,17099999999,8.40028875e-08,-0.020000236,0.0338669536,6.86993189e-05,2.42979843e-05,-0.02
1,18,518430.2,17199999999,8.44143475e-08,-0.0200002356,0.033866679,6.86502767e-05,2.44353327e-05,-0.02
1,18,518430.3,17299999999,8.48244569e-08,-0.0200002353,0.0338664045,6.86009598e-05,2.45725827e-05,-0.02
1,18,518430.4,17399999999,8.52332091e-08,-0.020000235,0.0338661302,6.85513686e-05,2.47097338e-05,-0.02
1,18,518430.5,17499999999,8.56405975e-08,-0.0200002346,0.0338658561,6.85015031e-05,2.48467854e-05,-0.02
1,18,518430.6,17599999999,8.60466157e-08,-0.0200002343,0.0338655822,6.84513635e-05,2.49837367e-05,-0.02
1,18,518430.7,17699999999,8.64512571e-08,-0.0200002339,0.0338653085,6.84009502e-05,2.51205877e-05,-0.02
1,18,518430.8,17799999999,8.68545154e-08,-0.0200002336,0.033865035,6.83502633e-05,2.52573377e-05,-0.02
1,18,518430.9,17899999999,8.72563839e-08,-0.0200002332,0.0338647617,6.82993029e-05,2.53939859e-05,-0.02
1,18,518431,17999999999,8.76568564e-08,-0.0200002329,0.0338644886,6.82480693e-05,2.5530532e-05,-0.02
1,18,518431.1,18099999999,8.80559263e-08,-0.0200002325,0.0338642157,6.81965627e-05,2.56669753e-05,-0.02
1,18,518431.2,18199999999,8.84535874e-08,-0.0200002322,0.033863943,6.81447833e-05,2.58033153e-05,-0.02
1,18,518431.3,18299999999,8.88498332e-08,-0.0200002318,0.0338636705,6.80927313e-05,2.59395514e-05,-0.02
1,18,518431.4,18399999999,8.92446574e-08,-0.0200002315,0.0338633983,6.80404069e-05,2.60756832e-05,-0.02
1,18,518431.5,18499999999,8.96380537e-08,-0.0200002311,0.0338631262,6.79878103e-05,2.621171e-05,-0.02
1,18,518431.6,18599999999,9.00300158e-08,-0.0200002307,0.0338628544,6.79349418e-05,2.63476314e-05,-0.02
1,18,518431.7,18699999999,9.04205374e-08,-0.0200002304,0.0338625827,6.78818015e-05,2.64834467e-05,-0.02
1,18,518431.8,18799999999,9.08096123e-08,-0.02000023,0.0338623113,6.78283897e-05,2.66191554e-05,-0.02
1,18,518431.9,18900000000,9.11972342e-08,-0.0200002297,0.0338620401,6.77747065e-05,2.67547571e-05,-0.02
1,18,518432,19000000000,9.1583397e-08,-0.0200002293,0.0338617691,6.77207522e-05,2.68902511e-05,-0.02
1,18,518432.1,19100000000,9.19680944e-08,-0.0200002289,0.0338614984,6.76665271e-05,2.70256369e-05,-0.02
1,18,518432.2,19200000000,9.23513204e-08,-0.0200002286,0.0338612278,6.76120312e-05,2.7160914e-05,-0.02
1,18,518432.3,19300000000,9.27330687e-08,-0.0200002282,0.0338609575,6.75572649e-05,2.72960821e-05,-0.02
1,18,518432.4,19400000000,9.31133333e-08,-0.0200002278,0.0338606874,6.75022283e-05,2.74311401e-05,-0.02
1,18,518432.5,19500000000,9.34921081e-08,-0.0200002274,0.0338604175,6.74469217e-05,2.75660877e-05,-0.02
1,18,518432.6,19600000000,9.3869387e-08,-0.0200002271,0.0338601478,6.73913453e-05,2.77009248e-05,-0.02
1,18,518432.7,19700000000,9.42451641e-08,-0.0200002267,0.0338598784,6.73354993e-05,2.78356501e-05,-0.02
1,18,518432.8,19800000000,9.46194332e-08,-0.0200002263,0.0338596091,6.72793839e-05,2.79702634e-05,-0.02
1,18,518432.9,19900000000,9.49921883e-08,-0.0200002259,0.0338593401,6.72229994e-05,2.81047645e-05,-0.02
1,18,518433,20000000000,9.53634237e-08,-0.0200002256,0.0338590714,6.7166346e-05,2.82391523e-05,-0.02
1,18,518433.1,20100000000,9.57331332e-08,-0.0200002252,0.0338588028,6.71094239e-05,2.83734265e-05,-0.02
1,18,518433.2,20200000000,9.61013109e-08,-0.0200002248,0.0338585345,6.70522334e-05,2.85075868e-05,-0.02
1,18,518433.3,20300000000,9.64679511e-08,-0.0200002244,0.0338582664,6.69947746e-05,2.86416322e-05,-0.02
1,18,518433.4,20400000000,9.68330478e-08,-0.020000224,0.0338579985,6.69370479e-05,2.87755624e-05,-0.02
1,18,518433.5,20500000000,9.71965951e-08,-0.0200002236,0.0338577309,6.68790533e-05,2.89093772e-05,-0.02
1,18,518433.6,20600000000,9.75585873e-08,-0.0200002232,0.0338574635,6.68207913e-05,2.90430757e-05,-0.02
1,18,518433.7,20700000000,9.79190186e-08,-0.0200002229,0.0338571964,6.67622619e-05,2.91766571e-05,-0.02
1,18,518433.8,20800000000,9.82778832e-08,-0.0200002225,0.0338569294,6.67034655e-05,2.93101214e-05,-0.02
1,18,518433.9,20900000000,9.86351753e-08,-0.0200002221,0.0338566627,6.66444022e-05,2.94434676e-05,-0.02
1,18,518434,21000000000,9.89908892e-08,-0.0200002217,0.0338563963,6.65850723e-05,2.95766957e-05,-0.02
1,18,518434.1,21100000000,9.93450193e-08,-0.0200002213,0.0338561301,6.65254761e-05,2.97098046e-05,-0.02
1,18,518434.2,21200000000,9.96975599e-08,-0.0200002209,0.0338558641,6.64656138e-05,2.98427942e-05,-0.02
1,18,518434.3,21300000000,1.00048505e-07,-0.0200002205,0.0338555984,6.64054856e-05,2.99756639e-05,-0.02
1,18,518434.4,21400000000,1.0039785e-07,-0.0200002201,0.0338553329,6.63450917e-05,3.01084127e-05,-0.02
1,18,518434.5,21500000000,1.00745588e-07,-0.0200002197,0.0338550676,6.62844324e-05,3.02410408e-05,-0.02
1,18,518434.6,21600000000,1.01091715e-07,-0.0200002193,0.0338548026,6.6223508e-05,3.0373547e-05,-0.02
1,18,518434.7,21700000000,1.01436224e-07,-0.0200002189,0.0338545378,6.61623187e-05,3.05059313e-05,-0.02
1,18,518434.8,21800000000,1.01779109e-07,-0.0200002185,0.0338542733,6.61008647e-05,3.0638193e-05,-0.02
1,18,518434.9,21900000000,1.02120367e-07,-0.020000218,0.033854009,6.60391462e-05,3.07703312e-05,-0.02
1,18,518435,22000000000,1.0245999e-07,-0.0200002176,0.033853745,6.59771636e-05,3.0902346e-05,-0.02
1,18,518435.1,22100000000,1.02797975e-07,-0.0200002172,0.0338534812,6.59149171e-05,3.10342366e-05,-0.02
1,18,518435.2,22200000000,1.03134314e-07,-0.0200002168,0.0338532177,6.58524069e-05,3.11660024e-05,-0.02
1,18,518435.3,22300000000,1.03469003e-07,-0.0200002164,0.0338529544,6.57896332e-05,3.12976429e-05,-0.02
1,18,518435.4,22400000000,1.03802037e-07,-0.020000216,0.0338526914,6.57265964e-05,3.14291575e-05,-0.02
1,18,518435.5,22500000000,1.0413341e-07,-0.0200002156,0.0338524286,6.56632967e-05,3.15605459e-05,-0.02
1,18,518435.6,22600000000,1.04463117e-07,-0.0200002152,0.0338521661,6.55997343e-05,3.1691807e-05,-0.02
1,18,518435.7,22700000000,1.04791152e-07,-0.0200002147,0.0338519038,6.55359094e-05,3.18229411e-05,-0.02
1,18,518435.8,22800000000,1.05117511e-07,-0.0200002143,0.0338516418,6.54718224e-05,3.19539472e-05,-0.02
1,18,518435.9,22900000000,1.05442188e-07,-0.0200002139,0.0338513801,6.54074735e-05,3.20848249e-05,-0.02
1,18,518436,23000000000,1.05765178e-07,-0.0200002135,0.0338511186,6.5342863e-05,3.22155736e-05,-0.02
1,18,518436.1,23100000000,1.06086475e-07,-0.0200002131,0.0338508573,6.5277991e-05,3.23461929e-05,-0.02
1,18,518436.2,23200000000,1.06406075e-07,-0.0200002126,0.0338505963,6.52128579e-05,3.24766821e-05,-0.02
1,18,518436.3,23300000000,1.06723973e-07,-0.0200002122,0.0338503356,6.5147464e-05,3.26070407e-05,-0.02
1,18,518436.4,23400000000,1.07040163e-07,-0.0200002118,0.0338500752,6.50818094e-05,3.27372683e-05,-0.02
1,18,518436.5,23500000000,1.07354641e-07,-0.0200002113,0.033849815,6.50158945e-05,3.28673644e-05,-0.02
1,18,518436.6,23600000000,1.076674e-07,-0.0200002109,0.0338495551,6.49497195e-05,3.29973283e-05,-0.02
1,18,518436.7,23700000000,1.07978437e-07,-0.0200002105,0.0338492954,6.48832847e-05,3.31271596e-05,-0.02
1,18,518436.8,23800000000,1.08287747e-07,-0.0200002101,0.033849036,6.48165903e-05,3.32568578e-05,-0.02
1,18,518436.9,23900000000,1.08595324e-07,-0.0200002096,0.0338487769,6.47496367e-05,3.33864223e-05,-0.02
1,18,518437,24000000000,1.08901163e-07,-0.0200002092,0.033848518,6.4682424e-05,3.35158527e-05,-0.02
1,18,518437.1,24100000000,1.0920526e-07,-0.0200002087,0.0338482594,6.46149526e-05,3.36451486e-05,-0.02
1,18,518437.2,24200000000,1.0950761e-07,-0.0200002083,0.0338480011,6.45472227e-05,3.3774309e-05,-0.02
1,18,518437.3,24300000000,1.09808207e-07,-0.0200002079,0.0338477431,6.44792345e-05,3.39033337e-05,-0.02
1,18,518437.4,24400000000,1.10107048e-07,-0.0200002074,0.0338474853,6.44109885e-05,3.40322222e-05,-0.02
1,18,518437.5,24500000000,1.10404126e-07,-0.020000207,0.0338472278,6.43424848e-05,3.41609739e-05,-0.02
1,18,518437.6,24600000000,1.10699439e-07,-0.0200002065,0.0338469706,6.42737237e-05,3.42895886e-05,-0.02
1,18,518437.7,24700000000,1.1099298e-07,-0.0200002061,0.0338467136,6.42047054e-05,3.44180652e-05,-0.02
1,18,518437.8,24800000000,1.11284745e-07,-0.0200002057,0.0338464569,6.41354304e-05,3.45464036e-05,-0.02
1,18,518437.9,24900000000,1.1157473e-07,-0.0200002052,0.0338462005,6.40658987e-05,3.46746031e-05,-0.02
1,18,518438,25000000000,1.1186293e-07,-0.0200002048,0.0338459444,6.39961108e-05,3.48026636e-05,-0.02
1,18,518438.1,25100000000,1.1214934e-07,-0.0200002043,0.0338456886,6.39260669e-05,3.49305839e-05,-0.02
1,18,518438.2,25200000000,1.12433955e-07,-0.0200002039,0.033845433,6.38557673e-05,3.50583639e-05,-0.02
1,18,518438.3,25300000000,1.12716771e-07,-0.0200002034,0.0338451777,6.37852122e-05,3.51860034e-05,-0.02
1,18,518438.4,25400000000,1.12997784e-07,-0.020000203,0.0338449227,6.37144019e-05,3.53135011e-05,-0.02
1,18,518438.5,25500000000,1.13276989e-07,-0.0200002025,0.033844668,6.36433368e-05,3.5440857e-05,-0.02
1,18,518438.6,25600000000,1.13554382e-07,-0.0200002021,0.0338444136,6.35720171e-05,3.55680708e-05,-0.02
1,18,518438.7,25700000000,1.13829958e-07,-0.0200002016,0.0338441595,6.3500443e-05,3.56951413e-05,-0.02
1,18,518438.8,25800000000,1.14103712e-07,-0.0200002011,0.0338439056,6.3428615e-05,3.58220685e-05,-0.02
1,18,518438.9,25900000000,1.14375641e-07,-0.0200002007,0.0338436521,6.33565332e-05,3.59488521e-05,-0.02
1,18,518439,26000000000,1.1464574e-07,-0.0200002002,0.0338433988,6.32841979e-05,3.60754912e-05,-0.02
1,18,518439.1,26100000000,1.14914004e-07,-0.0200001998,0.0338431458,6.32116095e-05,3.62019851e-05,-0.02
1,18,518439.2,26200000000,1.1518043e-07,-0.0200001993,0.0338428931,6.31387683e-05,3.63283335e-05,-0.02
1,18,518439.3,26300000000,1.15445013e-07,-0.0200001989,0.0338426407,6.30656744e-05,3.64545363e-05,-0.02
1,18,518439.4,26400000000,1.15707749e-07,-0.0200001984,0.0338423886,6.29923283e-05,3.65805924e-05,-0.02
1,18,518439.5,26500000000,1.15968633e-07,-0.0200001979,0.0338421368,6.29187301e-05,3.67065018e-05,-0.02
1,18,518439.6,26600000000,1.16227662e-07,-0.0200001975,0.0338418852,6.28448803e-05,3.68322637e-05,-0.02
1,18,518439.7,26700000000,1.16484832e-07,-0.020000197,0.033841634,6.27707791e-05,3.69578774e-05,-0.02
1,18,518439.8,26800000000,1.16740137e-07,-0.0200001965,0.0338413831,6.26964268e-05,3.70833429e-05,-0.02
1,18,518439.9,26900000000,1.16993575e-07,-0.0200001961,0.0338411325,6.26218236e-05,3.72086592e-05,-0.02
1,18,518440,27000000000,1.17245141e-07,-0.0200001956,0.0338408821,6.254697e-05,3.73338263e-05,-0.02
1,18,518440.1,27100000000,1.17494831e-07,-0.0200001951,0.0338406321,6.24718661e-05,3.74588434e-05,-0.02
1,18,518440.2,27200000000,1.17742641e-07,-0.0200001947,0.0338403824,6.23965124e-05,3.75837098e-05,-0.02
1,18,518440.3,27300000000,1.17988567e-07,-0.0200001942,0.0338401329,6.2320909e-05,3.77084255e-05,-0.02
1,18,518440.4,27400000000,1.18232605e-07,-0.0200001937,0.0338398838,6.22450563e-05,3.78329894e-05,-0.02
1,18,518440.5,27500000000,1.18474752e-07,-0.0200001932,0.033839635,6.21689546e-05,3.79574017e-05,-0.02
1,18,518440.6,27600000000,1.18715003e-07,-0.0200001928,0.0338393865,6.20926043e-05,3.80816615e-05,-0.02
1,18,518440.7,27700000000,1.18953355e-07,-0.0200001923,0.0338391383,6.20160055e-05,3.8205768e-05,-0.02
1,18,518440.8,27800000000,1.19189803e-07,-0.0200001918,0.0338388904,6.19391586e-05,3.83297214e-05,-0.02
1,18,518440.9,27900000000,1.19424344e-07,-0.0200001913,0.0338386428,6.1862064e-05,3.84535209e-05,-0.02
1,18,518441,28000000000,1.19656975e-07,-0.0200001909,0.0338383955,6.17847219e-05,3.85771659e-05,-0.02
1,18,518441.1,28100000000,1.19887691e-07,-0.0200001904,0.0338381485,6.17071326e-05,3.87006557e-05,-0.02
1,18,518441.2,28200000000,1.20116489e-07,-0.0200001899,0.0338379018,6.16292965e-05,3.88239903e-05,-0.02
1,18,518441.3,28300000000,1.20343365e-07,-0.0200001894,0.0338376555,6.15512138e-05,3.8947169e-05,-0.02
1,18,518441.4,28400000000,1.20568315e-07,-0.0200001889,0.0338374094,6.14728849e-05,3.9070191e-05,-0.02
1,18,518441.5,28500000000,1.20791337e-07,-0.0200001885,0.0338371637,6.13943101e-05,3.91930564e-05,-0.02
1,18,518441.6,28600000000,1.21012425e-07,-0.020000188,0.0338369183,6.13154897e-05,3.93157644e-05,-0.02
1,18,518441.7,28700000000,1.21231578e-07,-0.0200001875,0.0338366732,6.1236424e-05,3.94383144e-05,-0.02
1,18,518441.8,28800000000,1.21448791e-07,-0.020000187,0.0338364284,6.11571133e-05,3.95607061e-05,-0.02
1,18,518441.9,28900000000,1.2166406e-07,-0.0200001865,0.0338361839,6.1077558e-05,3.9682939e-05,-0.02
1,18,518442,29000000000,1.21877383e-07,-0.020000186,0.0338359398,6.09977584e-05,3.98050121e-05,-0.02
1,18,518442.1,29100000000,1.22088756e-07,-0.0200001855,0.033835696,6.09177147e-05,3.99269257e-05,-0.02
1,18,518442.2,29200000000,1.22298176e-07,-0.020000185,0.0338354525,6.08374274e-05,4.0048679e-05,-0.02
1,18,518442.3,29300000000,1.22505639e-07,-0.0200001846,0.0338352093,6.07568966e-05,4.01702715e-05,-0.02
1,18,518442.4,29400000000,1.22711141e-07,-0.0200001841,0.0338349664,6.06761229e-05,4.02917026e-05,-0.02
1,18,518442.5,29500000000,1.22914681e-07,-0.0200001836,0.0338347239,6.05951063e-05,4.04129719e-05,-0.02
1,18,518442.6,29600000000,1.23116253e-07,-0.0200001831,0.0338344817,6.05138474e-05,4.0534079e-05,-0.02
1,18,518442.7,29700000000,1.23315856e-07,-0.0200001826,0.0338342398,6.04323464e-05,4.06550233e-05,-0.02
1,18,518442.8,29800000000,1.23513486e-07,-0.0200001821,0.0338339982,6.03506037e-05,4.07758043e-05,-0.02
1,18,518442.9,29900000000,1.2370914e-07,-0.0200001816,0.033833757,6.02686195e-05,4.08964216e-05,-0.02
1,18,518443,30000000000,1.23902814e-07,-0.0200001811,0.0338335161,6.01863943e-05,4.10168747e-05,-0.02
1,18,518443.1,30100000000,1.24094506e-07,-0.0200001806,0.0338332755,6.01039282e-05,4.11371631e-05,-0.02
1,18,518443.2,30200000000,1.24284212e-07,-0.0200001801,0.0338330353,6.00212218e-05,4.12572861e-05,-0.02
1,18,518443.3,30300000000,1.2447193e-07,-0.0200001796,0.0338327954,5.99382752e-05,4.13772439e-05,-0.02
1,18,518443.4,30400000000,1.24657656e-07,-0.0200001791,0.0338325558,5.98550888e-05,4.14970353e-05,-0.02
1,18,518443.5,30500000000,1.24841388e-07,-0.0200001786,0.0338323165,5.9771663e-05,4.16166601e-05,-0.02
1,18,518443.6,30600000000,1.25023122e-07,-0.0200001781,0.0338320776,5.96879981e-05,4.17361178e-05,-0.02
1,18,518443.7,30700000000,1.25202856e-07,-0.0200001776,0.033831839,5.96040944e-05,4.1855408e-05,-0.02
1,18,518443.8,30800000000,1.25380586e-07,-0.0200001771,0.0338316008,5.95199523e-05,4.197453e-05,-0.02
1,18,518443.9,30900000000,1.25556311e-07,-0.0200001766,0.0338313629,5.9435572e-05,4.20934836e-05,-0.02
1,18,518444,31000000000,1.25730026e-07,-0.0200001761,0.0338311253,5.9350954e-05,4.22122681e-05,-0.02
1,18,518444.1,31100000000,1.2590173e-07,-0.0200001756,0.0338308881,5.92660986e-05,4.23308832e-05,-0.02
1,18,518444.2,31200000000,1.2607142e-07,-0.0200001751,0.0338306512,5.91810061e-05,4.24493283e-05,-0.02
1,18,518444.3,31300000000,1.26239092e-07,-0.0200001746,0.0338304147,5.90956768e-05,4.2567603e-05,-0.02
1,18,518444.4,31400000000,1.26404745e-07,-0.0200001741,0.0338301785,5.90101112e-05,4.26857068e-05,-0.02
1,18,518444.5,31500000000,1.26568375e-07,-0.0200001736,0.0338299426,5.89243094e-05,4.28036392e-05,-0.02
1,18,518444.6,31600000000,1.2672998e-07,-0.0200001731,0.0338297071,5.8838272e-05,4.29213998e-05,-0.02
1,18,518444.7,31700000000,1.26889557e-07,-0.0200001726,0.0338294719,5.87519991e-05,4.30389883e-05,-0.02
1,18,518444.8,31800000000,1.27047104e-07,-0.0200001721,0.0338292371,5.86654913e-05,4.31564038e-05,-0.02
1,18,518444.9,31900000000,1.27202619e-07,-0.0200001716,0.0338290026,5.85787487e-05,4.3273646e-05,-0.02
1,18,518445,32000000000,1.27356098e-07,-0.0200001711,0.0338287684,5.84917718e-05,4.33907145e-05,-0.02
1,18,518445.1,32100000000,1.27507539e-07,-0.0200001705,0.0338285347,5.84045609e-05,4.35076088e-05,-0.02
1,18,518445.2,32200000000,1.2765694e-07,-0.02000017,0.0338283012,5.83171164e-05,4.36243284e-05,-0.02
1,18,518445.3,32300000000,1.27804299e-07,-0.0200001695,0.0338280681,5.82294386e-05,4.37408732e-05,-0.02
1,18,518445.4,32400000000,1.27949613e-07,-0.020000169,0.0338278354,5.81415278e-05,4.38572421e-05,-0.02
1,18,518445.5,32500000000,1.2809288e-07,-0.0200001685,0.033827603,5.80533845e-05,4.3973435e-05,-0.02
1,18,518445.6,32600000000,1.28234097e-07,-0.020000168,0.033827371,5.79650089e-05,4.40894513e-05,-0.02
1,18,518445.7,32700000000,1.28373262e-07,-0.0200001675,0.0338271393,5.78764014e-05,4.4205291e-05,-0.02
1,18,518445.8,32800000000,1.28510374e-07,-0.020000167,0.033826908,5.77875624e-05,4.43209528e-05,-0.02
1,18,518445.9,32900000000,1.28645429e-07,-0.0200001664,0.033826677,5.76984922e-05,4.44364368e-05,-0.02
1,18,518446,33000000000,1.28778426e-07,-0.0200001659,0.0338264464,5.76091912e-05,4.45517424e-05,-0.02
1,18,518446.1,33100000000,1.28909363e-07,-0.0200001654,0.0338262162,5.75196598e-05,4.46668695e-05,-0.02
1,18,518446.2,33200000000,1.29038237e-07,-0.0200001649,0.0338259863,5.74298982e-05,4.4781817e-05,-0.02
1,18,518446.3,33300000000,1.29165046e-07,-0.0200001644,0.0338257567,5.73399069e-05,4.48965847e-05,-0.02
1,18,518446.4,33400000000,1.29289789e-07,-0.0200001639,0.0338255276,5.72496862e-05,4.50111725e-05,-0.02
1,18,518446.5,33500000000,1.29412463e-07,-0.0200001633,0.0338252987,5.71592365e-05,4.51255793e-05,-0.02
1,18,518446.6,33600000000,1.29533067e-07,-0.0200001628,0.0338250703,5.70685581e-05,4.5239805e-05,-0.02
1,18,518446.7,33700000000,1.29651598e-07,-0.0200001623,0.0338248422,5.69776514e-05,4.53538491e-05,-0.02
1,18,518446.8,33800000000,1.29768054e-07,-0.0200001618,0.0338246145,5.68865168e-05,4.54677111e-05,-0.02
1,18,518446.9,33900000000,1.29882435e-07,-0.0200001613,0.0338243871,5.67951546e-05,4.5581391e-05,-0.02
1,18,518447,34000000000,1.29994737e-07,-0.0200001608,0.0338241601,5.67035653e-05,4.56948876e-05,-0.02
1,18,518447.1,34100000000,1.30104959e-07,-0.0200001602,0.0338239335,5.6611749e-05,4.5808201e-05,-0.02
1,18,518447.2,34200000000,1.302131e-07,-0.0200001597,0.0338237073,5.65197063e-05,4.59213304e-05,-0.02
1,18,518447.3,34300000000,1.30319157e-07,-0.0200001592,0.0338234814,5.64274375e-05,4.60342754e-05,-0.02
1,18,518447.4,34400000000,1.30423129e-07,-0.0200001587,0.0338232559,5.6334943e-05,4.61470359e-05,-0.02
1,18,518447.5,34500000000,1.30525015e-07,-0.0200001581,0.0338230307,5.62422231e-05,4.6259611e-05,-0.02
1,18,518447.6,34600000000,1.30624811e-07,-0.0200001576,0.0338228059,5.61492782e-05,4.63720003e-05,-0.02
1,18,518447.7,34700000000,1.30722518e-07,-0.0200001571,0.0338225815,5.60561087e-05,4.64842039e-05,-0.02
1,18,518447.8,34800000000,1.30818134e-07,-0.0200001566,0.0338223575,5.59627149e-05,4.65962205e-05,-0.02
1,18,518447.9,34900000000,1.30911656e-07,-0.0200001561,0.0338221338,5.58690973e-05,4.67080502e-05,-0.02
1,18,518448,35000000000,1.31003084e-07,-0.0200001555,0.0338219106,5.57752561e-05,4.68196927e-05,-0.02
1,18,518448.1,35100000000,1.31092415e-07,-0.020000155,0.0338216876,5.56811919e-05,4.6931147e-05,-0.02
1,18,518448.2,35200000000,1.3117965e-07,-0.0200001545,0.0338214651,5.55869049e-05,4.70424129e-05,-0.02
1,18,518448.3,35300000000,1.31264785e-07,-0.020000154,0.033821243,5.54923955e-05,4.71534903e-05,-0.02
1,18,518448.4,35400000000,1.3134782e-07,-0.0200001534,0.0338210212,5.53976641e-05,4.72643782e-05,-0.02
1,18,518448.5,35500000000,1.31428754e-07,-0.0200001529,0.0338207998,5.53027111e-05,4.73750767e-05,-0.02
1,18,518448.6,35600000000,1.31507584e-07,-0.0200001524,0.0338205788,5.52075368e-05,4.74855848e-05,-0.02
1,18,518448.7,35700000000,1.31584311e-07,-0.0200001519,0.0338203581,5.51121417e-05,4.75959026e-05,-0.02
1,18,518448.8,35800000000,1.31658932e-07,-0.0200001513,0.0338201379,5.50165262e-05,4.77060291e-05,-0.02
1,18,518448.9,35900000000,1.31731447e-07,-0.0200001508,0.033819918,5.49206905e-05,4.78159644e-05,-0.02
1,18,518449,36000000000,1.31801854e-07,-0.0200001503,0.0338196985,5.48246352e-05,4.79257076e-05,-0.02
1,18,518449.1,36100000000,1.31870152e-07,-0.0200001498,0.0338194794,5.47283605e-05,4.80352584e-05,-0.02
1,18,518449.2,36200000000,1.3193634e-07,-0.0200001492,0.0338192607,5.46318668e-05,4.81446167e-05,-0.02
1,18,518449.3,36300000000,1.32000417e-07,-0.0200001487,0.0338190424,5.45351547e-05,4.82537816e-05,-0.02
1,18,518449.4,36400000000,1.32062382e-07,-0.0200001482,0.0338188245,5.44382243e-05,4.8362753e-05,-0.02
1,18,518449.5,36500000000,1.32122235e-07,-0.0200001476,0.0338186069,5.43410762e-05,4.84715301e-05,-0.02
1,18,518449.6,36600000000,1.32179973e-07,-0.0200001471,0.0338183897,5.42437107e-05,4.85801127e-05,-0.02
1,18,518449.7,36700000000,1.32235596e-07,-0.0200001466,0.033818173,5.41461282e-05,4.86885007e-05,-0.02
1,18,518449.8,36800000000,1.32289104e-07,-0.0200001461,0.0338179566,5.40483291e-05,4.87966929e-05,-0.02
1,18,518449.9,36900000000,1.32340495e-07,-0.0200001455,0.0338177406,5.39503137e-05,4.89046897e-05,-0.02
1,18,518450,37000000000,1.32389769e-07,-0.020000145,0.033817525,5.38520825e-05,4.90124899e-05,-0.02
1,18,518450.1,37100000000,1.32436924e-07,-0.0200001445,0.0338173098,5.37536359e-05,4.91200937e-05,-0.02
1,18,518450.2,37200000000,1.3248196e-07,-0.0200001439,0.033817095,5.36549743e-05,4.92275001e-05,-0.02
1,18,518450.3,37300000000,1.32524877e-07,-0.0200001434,0.0338168806,5.3556098e-05,4.93347089e-05,-0.02
1,18,518450.4,37400000000,1.32565673e-07,-0.0200001429,0.0338166665,5.34570075e-05,4.94417201e-05,-0.02
1,18,518450.5,37500000000,1.32604348e-07,-0.0200001423,0.0338164529,5.33577031e-05,4.95485326e-05,-0.02
1,18,518450.6,37600000000,1.32640902e-07,-0.0200001418,0.0338162397,5.32581853e-05,4.96551466e-05,-0.02
1,18,518450.7,37700000000,1.32675333e-07,-0.0200001413,0.0338160269,5.31584543e-05,4.9761561e-05,-0.02
1,18,518450.8,37800000000,1.32707642e-07,-0.0200001408,0.0338158144,5.30585108e-05,4.98677761e-05,-0.02
1,18,518450.9,37900000000,1.32737827e-07,-0.0200001402,0.0338156024,5.2958355e-05,4.9973791e-05,-0.02
1,18,518451,38000000000,1.32765888e-07,-0.0200001397,0.0338153908,5.28579873e-05,5.00796052e-05,-0.02
1,18,518451.1,38100000000,1.32791825e-07,-0.0200001392,0.0338151796,5.27574082e-05,5.01852183e-05,-0.02
1,18,518451.2,38200000000,1.32815638e-07,-0.0200001386,0.0338149687,5.2656618e-05,5.02906304e-05,-0.02
1,18,518451.3,38300000000,1.32837325e-07,-0.0200001381,0.0338147583,5.25556171e-05,5.03958405e-05,-0.02
1,18,518451.4,38400000000,1.32856887e-07,-0.0200001376,0.0338145483,5.2454406e-05,5.05008486e-05,-0.02
1,18,518451.5,38500000000,1.32874323e-07,-0.020000137,0.0338143387,5.23529851e-05,5.06056537e-05,-0.02
1,18,518451.6,38600000000,1.32889634e-07,-0.0200001365,0.0338141295,5.22513547e-05,5.07102561e-05,-0.02
1,18,518451.7,38700000000,1.32902818e-07,-0.020000136,0.0338139207,5.21495153e-05,5.08146548e-05,-0.02
1,18,518451.8,38800000000,1.32913875e-07,-0.0200001354,0.0338137123,5.20474673e-05,5.09188496e-05,-0.02
1,18,518451.9,38900000000,1.32922806e-07,-0.0200001349,0.0338135043,5.19452111e-05,5.10228403e-05,-0.02
1,18,518452,39000000000,1.32929611e-07,-0.0200001344,0.0338132968,5.1842747e-05,5.11266263e-05,-0.02
1,18,518452.1,39100000000,1.32934288e-07,-0.0200001338,0.0338130896,5.17400756e-05,5.12302069e-05,-0.02
1,18,518452.2,39200000000,1.32936839e-07,-0.0200001333,0.0338128829,5.16371971e-05,5.13335823e-05,-0.02
1,18,518452.3,39300000000,1.32937262e-07,-0.0200001328,0.0338126765,5.15341121e-05,5.14367514e-05,-0.02
1,18,518452.4,39400000000,1.32935558e-07,-0.0200001322,0.0338124706,5.1430821e-05,5.15397141e-05,-0.02
1,18,518452.5,39500000000,1.32931728e-07,-0.0200001317,0.0338122651,5.13273241e-05,5.16424703e-05,-0.02
1,18,518452.6,39600000000,1.3292577e-07,-0.0200001312,0.03381206,5.12236218e-05,5.1745019e-05,-0.02
1,18,518452.7,39700000000,1.32917686e-07,-0.0200001307,0.0338118553,5.11197146e-05,5.18473604e-05,-0.02
1,18,518452.8,39800000000,1.32907475e-07,-0.0200001301,0.0338116511,5.1015603e-05,5.19494938e-05,-0.02
1,18,518452.9,39900000000,1.32895138e-07,-0.0200001296,0.0338114472,5.09112872e-05,5.20514185e-05,-0.02
1,18,518453,40000000000,1.32880674e-07,-0.0200001291,0.0338112438,5.08067678e-05,5.21531343e-05,-0.02
1,18,518453.1,40100000000,1.32864084e-07,-0.0200001285,0.0338110408,5.07020451e-05,5.22546412e-05,-0.02
1,18,518453.2,40200000000,1.32845369e-07,-0.020000128,0.0338108382,5.05971196e-05,5.23559382e-05,-0.02
1,18,518453.3,40300000000,1.32824528e-07,-0.0200001275,0.033810636,5.04919917e-05,5.24570253e-05,-0.02
1,18,518453.4,40400000000,1.32801561e-07,-0.0200001269,0.0338104342,5.03866617e-05,5.25579018e-05,-0.02
1,18,518453.5,40500000000,1.3277647e-07,-0.0200001264,0.0338102329,5.02811302e-05,5.26585676e-05,-0.02
1,18,518453.6,40600000000,1.32749254e-07,-0.0200001259,0.033810032,5.01753976e-05,5.27590222e-05,-0.02
1,18,518453.7,40700000000,1.32719915e-07,-0.0200001253,0.0338098315,5.00694642e-05,5.28592649e-05,-0.02
1,18,518453.8,40800000000,1.32688452e-07,-0.0200001248,0.0338096315,4.99633306e-05,5.29592955e-05,-0.02
1,18,518453.9,40900000000,1.32654866e-07,-0.0200001243,0.0338094318,4.9856997e-05,5.30591139e-05,-0.02
1,18,518454,41000000000,1.32619157e-07,-0.0200001237,0.0338092326,4.9750464e-05,5.31587191e-05,-0.02
1,18,518454.1,41100000000,1.32581326e-07,-0.0200001232,0.0338090338,4.9643732e-05,5.32581114e-05,-0.02
1,18,518454.2,41200000000,1.32541375e-07,-0.0200001227,0.0338088355,4.95368013e-05,5.33572897e-05,-0.02
1,18,518454.3,41300000000,1.32499302e-07,-0.0200001222,0.0338086376,4.94296725e-05,5.34562543e-05,-0.02
1,18,518454.4,41400000000,1.3245511e-07,-0.0200001216,0.0338084401,4.9322346e-05,5.35550041e-05,-0.02
1,18,518454.5,41500000000,1.32408798e-07,-0.0200001211,0.033808243,4.92148221e-05,5.36535393e-05,-0.02
1,18,518454.6,41600000000,1.32360368e-07,-0.0200001206,0.0338080464,4.91071014e-05,5.37518591e-05,-0.02
1,18,518454.7,41700000000,1.3230982e-07,-0.02000012,0.0338078502,4.89991842e-05,5.38499632e-05,-0.02
1,18,518454.8,41800000000,1.32257155e-07,-0.0200001195,0.0338076544,4.88910709e-05,5.39478515e-05,-0.02
1,18,518454.9,41900000000,1.32202374e-07,-0.020000119,0.033807459,4.87827621e-05,5.40455231e-05,-0.02
1,18,518455,42000000000,1.32145477e-07,-0.0200001185,0.0338072641,4.86742582e-05,5.41429782e-05,-0.02
1,18,518455.1,42100000000,1.32086467e-07,-0.0200001179,0.0338070697,4.85655595e-05,5.42402162e-05,-0.02
1,18,518455.2,42200000000,1.32025343e-07,-0.0200001174,0.0338068756,4.84566665e-05,5.43372362e-05,-0.02
1,18,518455.3,42300000000,1.31962106e-07,-0.0200001169,0.033806682,4.83475797e-05,5.44340382e-05,-0.02
1,18,518455.4,42400000000,1.31896758e-07,-0.0200001163,0.0338064889,4.82382994e-05,5.45306222e-05,-0.02
1,18,518455.5,42500000000,1.318293e-07,-0.0200001158,0.0338062961,4.81288262e-05,5.46269872e-05,-0.02
1,18,518455.6,42600000000,1.31759733e-07,-0.0200001153,0.0338061038,4.80191604e-05,5.4723133e-05,-0.02
1,18,518455.7,42700000000,1.31688057e-07,-0.0200001148,0.033805912,4.79093026e-05,5.48190595e-05,-0.02
1,18,518455.8,42800000000,1.31614275e-07,-0.0200001142,0.0338057206,4.7799253e-05,5.49147659e-05,-0.02
1,18,518455.9,42900000000,1.31538386e-07,-0.0200001137,0.0338055296,4.76890123e-05,5.50102523e-05,-0.02
1,18,518456,43000000000,1.31460393e-07,-0.0200001132,0.0338053391,4.75785807e-05,5.51055177e-05,-0.02
1,18,518456.1,43100000000,1.31380297e-07,-0.0200001127,0.033805149,4.74679589e-05,5.52005624e-05,-0.02
1,18,518456.2,43200000000,1.31298098e-07,-0.0200001121,0.0338049593,4.73571471e-05,5.52953853e-05,-0.02
1,18,518456.3,43300000000,1.31213799e-07,-0.0200001116,0.0338047701,4.72461459e-05,5.53899864e-05,-0.02
1,18,518456.4,43400000000,1.311274e-07,-0.0200001111,0.0338045814,4.71349557e-05,5.54843656e-05,-0.02
1,18,518456.5,43500000000,1.31038904e-07,-0.0200001106,0.0338043931,4.70235769e-05,5.5578522e-05,-0.02
1,18,518456.6,43600000000,1.3094831e-07,-0.02000011,0.0338042052,4.69120099e-05,5.56724554e-05,-0.02
1,18,518456.7,43700000000,1.30855622e-07,-0.0200001095,0.0338040178,4.68002554e-05,5.57661658e-05,-0.02
1,18,518456.8,43800000000,1.3076084e-07,-0.020000109,0.0338038308,4.66883135e-05,5.58596523e-05,-0.02
1,18,518456.9,43900000000,1.30663965e-07,-0.0200001085,0.0338036443,4.6576185e-05,5.59529146e-05,-0.02
1,18,518457,44000000000,1.30565e-07,-0.0200001079,0.0338034582,4.646387e-05,5.60459528e-05,-0.02
1,18,518457.1,44100000000,1.30463946e-07,-0.0200001074,0.0338032726,4.63513692e-05,5.61387659e-05,-0.02
1,18,518457.2,44200000000,1.30360805e-07,-0.0200001069,0.0338030874,4.6238683e-05,5.62313538e-05,-0.02
1,18,518457.3,44300000000,1.30255578e-07,-0.0200001064,0.0338029027,4.61258118e-05,5.63237164e-05,-0.02
1,18,518457.4,44400000000,1.30148266e-07,-0.0200001059,0.0338027184,4.6012756e-05,5.64158529e-05,-0.02
1,18,518457.5,44500000000,1.30038873e-07,-0.0200001053,0.0338025346,4.58995162e-05,5.65077633e-05,-0.02
1,18,518457.6,44600000000,1.29927399e-07,-0.0200001048,0.0338023512,4.57860928e-05,5.65994468e-05,-0.02
1,18,518457.7,44700000000,1.29813845e-07,-0.0200001043,0.0338021683,4.56724862e-05,5.66909032e-05,-0.02
1,18,518457.8,44800000000,1.29698215e-07,-0.0200001038,0.0338019859,4.55586969e-05,5.67821323e-05,-0.02
1,18,518457.9,44900000000,1.2958051e-07,-0.0200001033,0.0338018039,4.54447253e-05,5.68731339e-05,-0.02
1,18,518458,45000000000,1.29460731e-07,-0.0200001027,0.0338016223,4.53305719e-05,5.69639071e-05,-0.02
1,18,518458.1,45100000000,1.29338881e-07,-0.0200001022,0.0338014412,4.52162372e-05,5.70544518e-05,-0.02
1,18,518458.2,45200000000,1.29214962e-07,-0.0200001017,0.0338012606,4.51017216e-05,5.71447679e-05,-0.02
1,18,518458.3,45300000000,1.29088975e-07,-0.0200001012,0.0338010804,4.49870255e-05,5.72348546e-05,-0.02
1,18,518458.4,45400000000,1.28960923e-07,-0.0200001007,0.0338009007,4.48721495e-05,5.73247116e-05,-0.02
1,18,518458.5,45500000000,1.28830807e-07,-0.0200001002,0.0338007215,4.47570939e-05,5.74143388e-05,-0.02
1,18,518458.6,45600000000,1.28698631e-07,-0.0200000996,0.0338005427,4.46418593e-05,5.75037359e-05,-0.02
1,18,518458.7,45700000000,1.28564395e-07,-0.0200000991,0.0338003644,4.45264462e-05,5.75929022e-05,-0.02
1,18,518458.8,45800000000,1.28428101e-07,-0.0200000986,0.0338001865,4.44108549e-05,5.76818374e-05,-0.02
1,18,518458.9,45900000000,1.28289754e-07,-0.0200000981,0.0338000091,4.42950859e-05,5.77705415e-05,-0.02
1,18,518459,46000000000,1.28149353e-07,-0.0200000976,0.0337998321,4.41791397e-05,5.78590137e-05,-0.02
1,18,518459.1,46100000000,1.28006902e-07,-0.0200000971,0.0337996557,4.40630168e-05,5.79472538e-05,-0.02
1,18,518459.2,46200000000,1.27862403e-07,-0.0200000966,0.0337994797,4.39467176e-05,5.80352614e-05,-0.02
1,18,518459.3,46300000000,1.27715858e-07,-0.020000096,0.0337993041,4.38302425e-05,5.81230364e-05,-0.02
1,18,518459.4,46400000000,1.2756727e-07,-0.0200000955,0.033799129,4.37135922e-05,5.82105781e-05,-0.02
1,18,518459.5,46500000000,1.2741664e-07,-0.020000095,0.0337989544,4.35967669e-05,5.82978867e-05,-0.02
1,18,518459.6,46600000000,1.27263972e-07,-0.0200000945,0.0337987803,4.34797673e-05,5.83849612e-05,-0.02
1,18,518459.7,46700000000,1.27109268e-07,-0.020000094,0.0337986066,4.33625937e-05,5.84718015e-05,-0.02
1,18,518459.8,46800000000,1.2695253e-07,-0.0200000935,0.0337984334,4.32452466e-05,5.85584073e-05,-0.02
1,18,518459.9,46900000000,1.26793761e-07,-0.020000093,0.0337982606,4.31277266e-05,5.86447783e-05,-0.02
1,18,518460,47000000000,1.26632963e-07,-0.0200000925,0.0337980884,4.3010034e-05,5.87309143e-05,-0.02
1,18,518460.1,47100000000,1.26470139e-07,-0.020000092,0.0337979166,4.28921693e-05,5.88168145e-05,-0.02
1,18,518460.2,47200000000,1.26305291e-07,-0.0200000915,0.0337977452,4.2774133e-05,5.89024785e-05,-0.02
1,18,518460.3,47300000000,1.26138423e-07,-0.020000091,0.0337975744,4.26559256e-05,5.89879068e-05,-0.02
1,18,518460.4,47400000000,1.25969536e-07,-0.0200000905,0.033797404,4.25375476e-05,5.90730983e-05,-0.02
1,18,518460.5,47500000000,1.25798634e-07,-0.02000009,0.0337972341,4.24189994e-05,5.91580529e-05,-0.02
1,18,518460.6,47600000000,1.25625719e-07,-0.0200000895,0.0337970647,4.23002815e-05,5.92427701e-05,-0.02
1,18,518460.7,47700000000,1.25450794e-07,-0.020000089,0.0337968957,4.21813944e-05,5.93272498e-05,-0.02
1,18,518460.8,47800000000,1.25273862e-07,-0.0200000885,0.0337967272,4.20623385e-05,5.94114916e-05,-0.02
1,18,518460.9,47900000000,1.25094925e-07,-0.020000088,0.0337965592,4.19431143e-05,5.94954951e-05,-0.02
1,18,518461,48000000000,1.24913987e-07,-0.0200000875,0.0337963917,4.18237224e-05,5.95792599e-05,-0.02
1,18,518461.1,48100000000,1.2473105e-07,-0.020000087,0.0337962246,4.17041631e-05,5.96627858e-05,-0.02
1,18,518461.2,48200000000,1.24546118e-07,-0.0200000865,0.0337960581,4.1584437e-05,5.97460725e-05,-0.02
1,18,518461.3,48300000000,1.24359193e-07,-0.020000086,0.033795892,4.14645445e-05,5.98291195e-05,-0.02
1,18,518461.4,48400000000,1.24170278e-07,-0.0200000855,0.0337957264,4.13444862e-05,5.99119266e-05,-0.02
1,18,518461.5,48500000000,1.23979376e-07,-0.020000085,0.0337955612,4.12242624e-05,5.99944934e-05,-0.02
1,18,518461.6,48600000000,1.23786491e-07,-0.0200000845,0.0337953966,4.11038738e-05,6.00768196e-05,-0.02
1,18,518461.7,48700000000,1.23591625e-07,-0.020000084,0.0337952324,4.09833207e-05,6.01589049e-05,-0.02
1,18,518461.8,48800000000,1.23394782e-07,-0.0200000835,0.0337950687,4.08626036e-05,6.02407489e-05,-0.02
1,18,518461.9,48900000000,1.23195964e-07,-0.020000083,0.0337949055,4.0741723e-05,6.03223513e-05,-0.02
1,18,518462,49000000000,1.22995175e-07,-0.0200000825,0.0337947428,4.06206795e-05,6.04037118e-05,-0.02
1,18,518462.1,49100000000,1.22792419e-07,-0.020000082,0.0337945806,4.04994735e-05,6.048483e-05,-0.02
1,18,518462.2,49200000000,1.22587697e-07,-0.0200000815,0.0337944188,4.03781054e-05,6.05657057e-05,-0.02
1,18,518462.3,49300000000,1.22381015e-07,-0.020000081,0.0337942576,4.02565758e-05,6.06463385e-05,-0.02
1,18,518462.4,49400000000,1.22172374e-07,-0.0200000805,0.0337940968,4.01348852e-05,6.07267278e-05,-0.02
1,18,518462.5,49500000000,1.21961778e-07,-0.02000008,0.0337939365,4.0013034e-05,6.08068738e-05,-0.02
1,18,518462.6,49600000000,1.21749231e-07,-0.0200000796,0.0337937767,3.98910227e-05,6.08867763e-05,-0.02
1,18,518462.7,49700000000,1.21534736e-07,-0.0200000791,0.0337936174,3.97688518e-05,6.0966434e-05,-0.02
1,18,518462.8,49800000000,1.21318297e-07,-0.0200000786,0.0337934585,3.96465218e-05,6.10458475e-05,-0.02
1,18,518462.9,49900000000,1.21099916e-07,-0.0200000781,0.0337933002,3.95240333e-05,6.11250162e-05,-0.02
1,18,518463,50000000000,1.20879598e-07,-0.0200000776,0.0337931424,3.94013866e-05,6.12039395e-05,-0.02
1,18,518463.1,50100000000,1.20657346e-07,-0.0200000771,0.033792985,3.92785822e-05,6.12826177e-05,-0.02
1,18,518463.2,50200000000,1.20433163e-07,-0.0200000767,0.0337928282,3.91556208e-05,6.136105e-05,-0.02
1,18,518463.3,50300000000,1.20207053e-07,-0.0200000762,0.0337926718,3.90325027e-05,6.14392363e-05,-0.02
1,18,518463.4,50400000000,1.1997902e-07,-0.0200000757,0.0337925159,3.89092284e-05,6.15171763e-05,-0.02
1,18,518463.5,50500000000,1.19749067e-07,-0.0200000752,0.0337923605,3.87857985e-05,6.15948695e-05,-0.02
1,18,518463.6,50600000000,1.19517199e-07,-0.0200000747,0.0337922056,3.86622134e-05,6.16723154e-05,-0.02
1,18,518463.7,50700000000,1.19283418e-07,-0.0200000743,0.0337920512,3.85384736e-05,6.17495143e-05,-0.02
1,18,518463.8,50800000000,1.19047728e-07,-0.0200000738,0.0337918973,3.84145797e-05,6.18264656e-05,-0.02
1,18,518463.9,50900000000,1.18810134e-07,-0.0200000733,0.0337917439,3.82905321e-05,6.19031686e-05,-0.02
1,18,518464,51000000000,1.18570639e-07,-0.0200000728,0.033791591,3.81663313e-05,6.19796237e-05,-0.02
1,18,518464.1,51100000000,1.18329246e-07,-0.0200000724,0.0337914386,3.80419778e-05,6.20558302e-05,-0.02
1,18,518464.2,51200000000,1.18085961e-07,-0.0200000719,0.0337912867,3.79174721e-05,6.21317877e-05,-0.02
1,18,518464.3,51300000000,1.17840786e-07,-0.0200000714,0.0337911353,3.77928148e-05,6.22074962e-05,-0.02
1,18,518464.4,51400000000,1.17593725e-07,-0.0200000709,0.0337909844,3.76680062e-05,6.22829553e-05,-0.02
1,18,518464.5,51500000000,1.17344783e-07,-0.0200000705,0.0337908339,3.75430469e-05,6.23581643e-05,-0.02
1,18,518464.6,51600000000,1.17093964e-07,-0.02000007,0.033790684,3.74179375e-05,6.24331236e-05,-0.02
1,18,518464.7,51700000000,1.16841271e-07,-0.0200000695,0.0337905346,3.72926783e-05,6.25078322e-05,-0.02
1,18,518464.8,51800000000,1.16586709e-07,-0.0200000691,0.0337903857,3.716727e-05,6.25822904e-05,-0.02
1,18,518464.9,51900000000,1.16330281e-07,-0.0200000686,0.0337902373,3.7041713e-05,6.26564977e-05,-0.02
1,18,518465,52000000000,1.16071992e-07,-0.0200000681,0.0337900894,3.69160077e-05,6.27304534e-05,-0.02
1,18,518465.1,52100000000,1.15811845e-07,-0.0200000677,0.033789942,3.67901548e-05,6.28041579e-05,-0.02
1,18,518465.2,52200000000,1.15549846e-07,-0.0200000672,0.0337897951,3.66641548e-05,6.28776103e-05,-0.02
1,18,518465.3,52300000000,1.15285998e-07,-0.0200000667,0.0337896487,3.6538008e-05,6.29508108e-05,-0.02
1,18,518465.4,52400000000,1.15020306e-07,-0.0200000663,0.0337895028,3.6411715e-05,6.30237585e-05,-0.02
1,18,518465.5,52500000000,1.14752773e-07,-0.0200000658,0.0337893574,3.62852764e-05,6.30964539e-05,-0.02
1,18,518465.6,52600000000,1.14483404e-07,-0.0200000654,0.0337892125,3.61586927e-05,6.31688959e-05,-0.02
1,18,518465.7,52700000000,1.14212203e-07,-0.0200000649,0.0337890681,3.60319642e-05,6.32410847e-05,-0.02
1,18,518465.8,52800000000,1.13939175e-07,-0.0200000645,0.0337889243,3.59050917e-05,6.33130201e-05,-0.02
1,18,518465.9,52900000000,1.13664324e-07,-0.020000064,0.0337887809,3.57780754e-05,6.33847014e-05,-0.02
1,18,518466,53000000000,1.13387654e-07,-0.0200000635,0.033788638,3.56509161e-05,6.34561287e-05,-0.02
1,18,518466.1,53100000000,1.1310917e-07,-0.0200000631,0.0337884957,3.55236141e-05,6.35273014e-05,-0.02
1,18,518466.2,53200000000,1.12828877e-07,-0.0200000626,0.0337883539,3.539617e-05,6.35982196e-05,-0.02
1,18,518466.3,53300000000,1.12546778e-07,-0.0200000622,0.0337882125,3.52685843e-05,6.36688825e-05,-0.02
1,18,518466.4,53400000000,1.12262878e-07,-0.0200000617,0.0337880717,3.51408575e-05,6.37392901e-05,-0.02
1,18,518466.5,53500000000,1.11977182e-07,-0.0200000613,0.0337879314,3.50129901e-05,6.38094423e-05,-0.02
1,18,518466.6,53600000000,1.11689695e-07,-0.0200000608,0.0337877916,3.48849827e-05,6.38793385e-05,-0.02
1,18,518466.7,53700000000,1.1140042e-07,-0.0200000604,0.0337876524,3.47568357e-05,6.39489785e-05,-0.02
1,18,518466.8,53800000000,1.11109363e-07,-0.02000006,0.0337875136,3.46285496e-05,6.4018362e-05,-0.02
1,18,518466.9,53900000000,1.10816529e-07,-0.0200000595,0.0337873753,3.4500125e-05,6.40874892e-05,-0.02
1,18,518467,54000000000,1.10521921e-07,-0.0200000591,0.0337872376,3.43715624e-05,6.41563591e-05,-0.02
1,18,518467.1,54100000000,1.10225545e-07,-0.0200000586,0.0337871004,3.42428622e-05,6.42249717e-05,-0.02
1,18,518467.2,54200000000,1.09927405e-07,-0.0200000582,0.0337869637,3.41140251e-05,6.42933268e-05,-0.02
1,18,518467.3,54300000000,1.09627507e-07,-0.0200000577,0.0337868275,3.39850515e-05,6.43614241e-05,-0.02
1,18,518467.4,54400000000,1.09325854e-07,-0.0200000573,0.0337866918,3.3855942e-05,6.44292633e-05,-0.02
1,18,518467.5,54500000000,1.09022452e-07,-0.0200000569,0.0337865566,3.3726697e-05,6.44968445e-05,-0.02
1,18,518467.6,54600000000,1.08717306e-07,-0.0200000564,0.033786422,3.3597317e-05,6.45641668e-05,-0.02
1,18,518467.7,54700000000,1.08410421e-07,-0.020000056,0.0337862879,3.34678027e-05,6.46312301e-05,-0.02
1,18,518467.8,54800000000,1.081018e-07,-0.0200000556,0.0337861543,3.33381545e-05,6.46980344e-05,-0.02
1,18,518467.9,54900000000,1.07791451e-07,-0.0200000551,0.0337860212,3.32083729e-05,6.47645792e-05,-0.02
1,18,518468,55000000000,1.07479376e-07,-0.0200000547,0.0337858886,3.30784584e-05,6.48308643e-05,-0.02
1,18,518468.1,55100000000,1.07165582e-07,-0.0200000543,0.0337857566,3.29484116e-05,6.48968895e-05,-0.02
1,18,518468.2,55200000000,1.06850073e-07,-0.0200000538,0.033785625,3.2818233e-05,6.49626544e-05,-0.02
1,18,518468.3,55300000000,1.06532855e-07,-0.0200000534,0.033785494,3.26879231e-05,6.50281589e-05,-0.02
1,18,518468.4,55400000000,1.06213932e-07,-0.020000053,0.0337853635,3.25574824e-05,6.50934029e-05,-0.02
1,18,518468.5,55500000000,1.0589331e-07,-0.0200000526,0.0337852336,3.24269115e-05,6.51583854e-05,-0.02
1,18,518468.6,55600000000,1.05570993e-07,-0.0200000521,0.0337851041,3.22962108e-05,6.52231069e-05,-0.02
1,18,518468.7,55700000000,1.05246987e-07,-0.0200000517,0.0337849752,3.2165381e-05,6.52875668e-05,-0.02
1,18,518468.8,55800000000,1.04921298e-07,-0.0200000513,0.0337848468,3.20344225e-05,6.5351765e-05,-0.02
1,18,518468.9,55900000000,1.04593929e-07,-0.0200000509,0.033784719,3.19033358e-05,6.54157012e-05,-0.02
1,18,518469,56000000000,1.04264887e-07,-0.0200000505,0.0337845916,3.17721214e-05,6.5479375e-05,-0.02
1,18,518469.1,56100000000,1.03934177e-07,-0.0200000501,0.0337844648,3.164078e-05,6.55427863e-05,-0.02
1,18,518469.2,56200000000,1.03601804e-07,-0.0200000496,0.0337843385,3.1509312e-05,6.56059348e-05,-0.02
1,18,518469.3,56300000000,1.03267773e-07,-0.0200000492,0.0337842127,3.13777179e-05,6.566882e-05,-0.02
1,18,518469.4,56400000000,1.0293209e-07,-0.0200000488,0.0337840875,3.12459983e-05,6.57314421e-05,-0.02
1,18,518469.5,56500000000,1.0259476e-07,-0.0200000484,0.0337839628,3.11141537e-05,6.57938007e-05,-0.02
1,18,518469.6,56600000000,1.02255789e-07,-0.020000048,0.0337838386,3.09821846e-05,6.58558955e-05,-0.02
1,18,518469.7,56700000000,1.01915181e-07,-0.0200000476,0.0337837149,3.08500916e-05,6.5917726e-05,-0.02
1,18,518469.8,56800000000,1.01572943e-07,-0.0200000472,0.0337835918,3.07178751e-05,6.59792925e-05,-0.02
1,18,518469.9,56900000000,1.0122908e-07,-0.0200000468,0.0337834692,3.05855358e-05,6.60405944e-05,-0.02
1,18,518470,57000000000,1.00883597e-07,-0.0200000464,0.0337833471,3.04530741e-05,6.61016315e-05,-0.02
1,18,518470.1,57100000000,1.00536499e-07,-0.020000046,0.0337832256,3.03204905e-05,6.61624033e-05,-0.02
1,18,518470.2,57200000000,1.00187794e-07,-0.0200000456,0.0337831046,3.01877857e-05,6.62229101e-05,-0.02
1,18,518470.3,57300000000,9.9837485e-08,-0.0200000452,0.0337829841,3.00549601e-05,6.62831513e-05,-0.02
1,18,518470.4,57400000000,9.94855789e-08,-0.0200000448,0.0337828641,2.99220142e-05,6.63431266e-05,-0.02
1,18,518470.5,57500000000,9.9132081e-08,-0.0200000444,0.0337827447,2.97889487e-05,6.64028361e-05,-0.02
1,18,518470.6,57600000000,9.8776997e-08,-0.020000044,0.0337826258,2.9655764e-05,6.64622791e-05,-0.02
1,18,518470.7,57700000000,9.84203325e-08,-0.0200000436,0.0337825075,2.95224606e-05,6.65214559e-05,-0.02
1,18,518470.8,57800000000,9.80620934e-08,-0.0200000432,0.0337823897,2.93890391e-05,6.65803657e-05,-0.02
1,18,518470.9,57900000000,9.77022852e-08,-0.0200000428,0.0337822724,2.92555001e-05,6.66390088e-05,-0.02
1,18,518471,58000000000,9.73409138e-08,-0.0200000424,0.0337821556,2.9121844e-05,6.66973845e-05,-0.02
1,18,518471.1,58100000000,9.6977985e-08,-0.020000042,0.0337820394,2.89880714e-05,6.67554931e-05,-0.02
1,18,518471.2,58200000000,9.66135045e-08,-0.0200000416,0.0337819237,2.88541828e-05,6.68133339e-05,-0.02
1,18,518471.3,58300000000,9.62474782e-08,-0.0200000412,0.0337818086,2.87201788e-05,6.68709067e-05,-0.02
1,18,518471.4,58400000000,9.5879912e-08,-0.0200000409,0.033781694,2.85860599e-05,6.69282113e-05,-0.02
1,18,518471.5,58500000000,9.55108116e-08,-0.0200000405,0.0337815799,2.84518266e-05,6.69852478e-05,-0.02
1,18,518471.6,58600000000,9.51401831e-08,-0.0200000401,0.0337814664,2.83174795e-05,6.70420156e-05,-0.02
1,18,518471.7,58700000000,9.47680324e-08,-0.0200000397,0.0337813534,2.81830192e-05,6.70985145e-05,-0.02
1,18,518471.8,58800000000,9.43943653e-08,-0.0200000393,0.0337812409,2.8048446e-05,6.71547446e-05,-0.02
1,18,518471.9,58900000000,9.4019188e-08,-0.020000039,0.033781129,2.79137607e-05,6.72107053e-05,-0.02
1,18,518472,59000000000,9.36425063e-08,-0.0200000386,0.0337810176,2.77789637e-05,6.72663964e-05,-0.02
1,18,518472.1,59100000000,9.32643264e-08,-0.0200000382,0.0337809068,2.76440555e-05,6.73218179e-05,-0.02
1,18,518472.2,59200000000,9.28846543e-08,-0.0200000378,0.0337807965,2.75090368e-05,6.73769698e-05,-0.02
1,18,518472.3,59300000000,9.2503496e-08,-0.0200000375,0.0337806867,2.7373908e-05,6.74318512e-05,-0.02
1,18,518472.4,59400000000,9.21208576e-08,-0.0200000371,0.0337805775,2.72386697e-05,6.74864623e-05,-0.02
1,18,518472.5,59500000000,9.17367453e-08,-0.0200000367,0.0337804688,2.71033224e-05,6.75408028e-05,-0.02
1,18,518472.6,59600000000,9.13511653e-08,-0.0200000364,0.0337803607,2.69678667e-05,6.75948725e-05,-0.02
1,18,518472.7,59700000000,9.09641236e-08,-0.020000036,0.0337802531,2.68323031e-05,6.76486715e-05,-0.02
1,18,518472.8,59800000000,9.05756265e-08,-0.0200000356,0.033780146,2.66966322e-05,6.77021989e-05,-0.02
1,18,518472.9,59900000000,9.01856801e-08,-0.0200000353,0.0337800395,2.65608544e-05,6.7755455e-05,-0.02
1,18,518473,60000000000,8.97942908e-08,-0.0200000349,0.0337799335,2.64249704e-05,6.78084394e-05,-0.02
1,18,518473.1,60100000000,8.94014648e-08,-0.0200000346,0.0337798281,2.62889807e-05,6.78611519e-05,-0.02
1,18,518473.2,60200000000,8.90072084e-08,-0.0200000342,0.0337797232,2.61528858e-05,6.79135924e-05,-0.02
1,18,518473.3,60300000000,8.86115279e-08,-0.0200000338,0.0337796189,2.60166862e-05,6.79657605e-05,-0.02
1,18,518473.4,60400000000,8.82144296e-08,-0.0200000335,0.0337795151,2.58803826e-05,6.80176562e-05,-0.02
1,18,518473.5,60500000000,8.78159198e-08,-0.0200000331,0.0337794119,2.57439755e-05,6.80692792e-05,-0.02
1,18,518473.6,60600000000,8.7416005e-08,-0.0200000328,0.0337793092,2.56074653e-05,6.81206293e-05,-0.02
1,18,518473.7,60700000000,8.70146916e-08,-0.0200000324,0.033779207,2.54708528e-05,6.81717063e-05,-0.02
1,18,518473.8,60800000000,8.66119859e-08,-0.0200000321,0.0337791054,2.53341383e-05,6.82225099e-05,-0.02
1,18,518473.9,60900000000,8.62078944e-08,-0.0200000317,0.0337790044,2.51973224e-05,6.82730401e-05,-0.02
1,18,518474,61000000000,8.58024236e-08,-0.0200000314,0.0337789038,2.50604058e-05,6.83232962e-05,-0.02
1,18,518474.1,61100000000,8.539558e-08,-0.0200000311,0.0337788039,2.49233889e-05,6.83732787e-05,-0.02
1,18,518474.2,61200000000,8.498737e-08,-0.0200000307,0.0337787045,2.47862723e-05,6.84229871e-05,-0.02
1,18,518474.3,61300000000,8.45778003e-08,-0.0200000304,0.0337786056,2.46490565e-05,6.84724212e-05,-0.02
1,18,518474.4,61400000000,8.41668773e-08,-0.02000003,0.0337785073,2.45117421e-05,6.85215804e-05,-0.02
1,18,518474.5,61500000000,8.37546076e-08,-0.0200000297,0.0337784095,2.43743296e-05,6.85704652e-05,-0.02
1,18,518474.6,61600000000,8.33409978e-08,-0.0200000294,0.0337783123,2.42368197e-05,6.86190752e-05,-0.02
1,18,518474.7,61700000000,8.29260546e-08,-0.020000029,0.0337782156,2.40992128e-05,6.866741e-05,-0.02
1,18,518474.8,61800000000,8.25097846e-08,-0.0200000287,0.0337781195,2.39615094e-05,6.87154692e-05,-0.02
1,18,518474.9,61900000000,8.20921945e-08,-0.0200000284,0.0337780239,2.38237102e-05,6.87632533e-05,-0.02
1,18,518475,62000000000,8.16732908e-08,-0.020000028,0.0337779289,2.36858157e-05,6.88107613e-05,-0.02
1,18,518475.1,62100000000,8.12530804e-08,-0.0200000277,0.0337778345,2.35478264e-05,6.88579938e-05,-0.02
1,18,518475.2,62200000000,8.083157e-08,-0.0200000274,0.0337777405,2.3409743e-05,6.89049502e-05,-0.02
1,18,518475.3,62300000000,8.04087662e-08,-0.0200000271,0.0337776472,2.32715658e-05,6.89516301e-05,-0.02
1,18,518475.4,62400000000,7.99846759e-08,-0.0200000268,0.0337775544,2.31332956e-05,6.89980338e-05,-0.02
1,18,518475.5,62500000000,7.95593058e-08,-0.0200000264,0.0337774621,2.29949328e-05,6.90441607e-05,-0.02
1,18,518475.6,62600000000,7.91326628e-08,-0.0200000261,0.0337773704,2.2856478e-05,6.9090011e-05,-0.02
1,18,518475.7,62700000000,7.87047537e-08,-0.0200000258,0.0337772793,2.27179318e-05,6.9135584e-05,-0.02
1,18,518475.8,62800000000,7.82755853e-08,-0.0200000255,0.0337771887,2.25792947e-05,6.91808799e-05,-0.02
1,18,518475.9,62900000000,7.78451645e-08,-0.0200000252,0.0337770987,2.24405673e-05,6.92258987e-05,-0.02
1,18,518476,63000000000,7.74134982e-08,-0.0200000249,0.0337770092,2.23017501e-05,6.92706397e-05,-0.02
1,18,518476.1,63100000000,7.69805933e-08,-0.0200000246,0.0337769203,2.21628436e-05,6.93151033e-05,-0.02
1,18,518476.2,63200000000,7.65464566e-08,-0.0200000243,0.0337768319,2.20238485e-05,6.93592887e-05,-0.02
1,18,518476.3,63300000000,7.61110953e-08,-0.0200000239,0.0337767441,2.18847653e-05,6.9403196e-05,-0.02
1,18,518476.4,63400000000,7.56745161e-08,-0.0200000236,0.0337766568,2.17455946e-05,6.94468254e-05,-0.02
1,18,518476.5,63500000000,7.52367262e-08,-0.0200000233,0.0337765701,2.16063368e-05,6.94901761e-05,-0.02
1,18,518476.6,63600000000,7.47977325e-08,-0.020000023,0.033776484,2.14669926e-05,6.95332481e-05,-0.02
1,18,518476.7,63700000000,7.4357542e-08,-0.0200000227,0.0337763984,2.13275625e-05,6.95760415e-05,-0.02
1,18,518476.8,63800000000,7.39161618e-08,-0.0200000224,0.0337763134,2.11880471e-05,6.96185559e-05,-0.02
1,18,518476.9,63900000000,7.34735989e-08,-0.0200000221,0.0337762289,2.10484469e-05,6.96607912e-05,-0.02
1,18,518477,64000000000,7.30298605e-08,-0.0200000219,0.033776145,2.09087626e-05,6.97027475e-05,-0.02
1,18,518477.1,64100000000,7.25849536e-08,-0.0200000216,0.0337760616,2.07689945e-05,6.97444241e-05,-0.02
1,18,518477.2,64200000000,7.21388853e-08,-0.0200000213,0.0337759788,2.06291434e-05,6.9785821e-05,-0.02
1,18,518477.3,64300000000,7.16916628e-08,-0.020000021,0.0337758966,2.04892098e-05,6.98269382e-05,-0.02
1,18,518477.4,64400000000,7.12432932e-08,-0.0200000207,0.0337758149,2.03491942e-05,6.98677755e-05,-0.02
1,18,518477.5,64500000000,7.07937838e-08,-0.0200000204,0.0337757338,2.02090971e-05,6.99083327e-05,-0.02
1,18,518477.6,64600000000,7.03431417e-08,-0.0200000201,0.0337756533,2.00689192e-05,6.99486096e-05,-0.02
1,18,518477.7,64700000000,6.9891374e-08,-0.0200000199,0.0337755733,1.99286611e-05,6.99886061e-05,-0.02
1,18,518477.8,64800000000,6.94384881e-08,-0.0200000196,0.0337754938,1.97883232e-05,7.0028322e-05,-0.02
1,18,518477.9,64900000000,6.89844912e-08,-0.0200000193,0.033775415,1.96479061e-05,7.00677572e-05,-0.02
1,18,518478,65000000000,6.85293906e-08,-0.020000019,0.0337753367,1.95074105e-05,7.01069112e-05,-0.02
1,18,518478.1,65100000000,6.80731934e-08,-0.0200000188,0.0337752589,1.93668367e-05,7.01457844e-05,-0.02
1,18,518478.2,65200000000,6.76159071e-08,-0.0200000185,0.0337751817,1.92261856e-05,7.01843764e-05,-0.02
1,18,518478.3,65300000000,6.7157539e-08,-0.0200000182,0.0337751051,1.90854574e-05,7.0222687e-05,-0.02
1,18,518478.4,65400000000,6.66980963e-08,-0.0200000179,0.0337750291,1.8944653e-05,7.02607162e-05,-0.02
1,18,518478.5,65500000000,6.62375865e-08,-0.0200000177,0.0337749536,1.88037727e-05,7.02984633e-05,-0.02
1,18,518478.6,65600000000,6.57760168e-08,-0.0200000174,0.0337748786,1.86628173e-05,7.0335929e-05,-0.02
1,18,518478.7,65700000000,6.53133948e-08,-0.0200000172,0.0337748043,1.85217871e-05,7.03731126e-05,-0.02
1,18,518478.8,65800000000,6.48497277e-08,-0.0200000169,0.0337747305,1.83806829e-05,7.04100139e-05,-0.02
1,18,518478.9,65900000000,6.43850231e-08,-0.0200000166,0.0337746572,1.82395051e-05,7.04466332e-05,-0.02
1,18,518479,66000000000,6.39192882e-08,-0.0200000164,0.0337745846,1.80982543e-05,7.048297e-05,-0.02
1,18,518479.1,66100000000,6.34525307e-08,-0.0200000161,0.0337745124,1.79569312e-05,7.05190241e-05,-0.02
1,18,518479.2,66200000000,6.2984758e-08,-0.0200000159,0.0337744409,1.78155362e-05,7.05547957e-05,-0.02
1,18,518479.3,66300000000,6.25159774e-08,-0.0200000156,0.0337743699,1.76740699e-05,7.05902841e-05,-0.02
1,18,518479.4,66400000000,6.20461966e-08,-0.0200000154,0.0337742995,1.75325329e-05,7.06254899e-05,-0.02
1,18,518479.5,66500000000,6.15754231e-08,-0.0200000151,0.0337742297,1.73909258e-05,7.06604125e-05,-0.02
1,18,518479.6,66600000000,6.11036644e-08,-0.0200000149,0.0337741604,1.72492491e-05,7.06950516e-05,-0.02
1,18,518479.7,66700000000,6.0630928e-08,-0.0200000146,0.0337740917,1.71075034e-05,7.07294073e-05,-0.02
1,18,518479.8,66800000000,6.01572216e-08,-0.0200000144,0.0337740235,1.69656893e-05,7.07634797e-05,-0.02
1,18,518479.9,66900000000,5.96825526e-08,-0.0200000142,0.033773956,1.68238073e-05,7.07972681e-05,-0.02
1,18,518480,67000000000,5.92069287e-08,-0.0200000139,0.033773889,1.6681858e-05,7.08307731e-05,-0.02
1,18,518480.1,67100000000,5.87303575e-08,-0.0200000137,0.0337738225,1.65398419e-05,7.08639937e-05,-0.02
1,18,518480.2,67200000000,5.82528466e-08,-0.0200000134,0.0337737566,1.63977597e-05,7.08969303e-05,-0.02
1,18,518480.3,67300000000,5.77744036e-08,-0.0200000132,0.0337736913,1.62556118e-05,7.0929583e-05,-0.02
1,18,518480.4,67400000000,5.72950363e-08,-0.020000013,0.0337736266,1.6113399e-05,7.0961951e-05,-0.02
1,18,518480.5,67500000000,5.68147523e-08,-0.0200000128,0.0337735624,1.59711216e-05,7.09940346e-05,-0.02
1,18,518480.6,67600000000,5.63335592e-08,-0.0200000125,0.0337734988,1.58287804e-05,7.10258336e-05,-0.02
1,18,518480.7,67700000000,5.58514647e-08,-0.0200000123,0.0337734358,1.56863758e-05,7.10573478e-05,-0.02
1,18,518480.8,67800000000,5.53684767e-08,-0.0200000121,0.0337733734,1.55439085e-05,7.10885772e-05,-0.02
1,18,518480.9,67900000000,5.48846028e-08,-0.0200000119,0.0337733115,1.5401379e-05,7.11195216e-05,-0.02
1,18,518481,68000000000,5.43998507e-08,-0.0200000116,0.0337732501,1.52587879e-05,7.11501811e-05,-0.02
1,18,518481.1,68100000000,5.39142282e-08,-0.0200000114,0.0337731894,1.51161358e-05,7.11805552e-05,-0.02
1,18,518481.2,68200000000,5.34277431e-08,-0.0200000112,0.0337731292,1.49734231e-05,7.12106439e-05,-0.02
1,18,518481.3,68300000000,5.29404031e-08,-0.020000011,0.0337730696,1.48306506e-05,7.12404471e-05,-0.02
1,18,518481.4,68400000000,5.24522161e-08,-0.0200000108,0.0337730106,1.46878187e-05,7.12699645e-05,-0.02
1,18,518481.5,68500000000,5.19631899e-08,-0.0200000106,0.0337729521,1.45449281e-05,7.12991967e-05,-0.02
1,18,518481.6,68600000000,5.14733323e-08,-0.0200000104,0.0337728942,1.44019793e-05,7.13281426e-05,-0.02
1,18,518481.7,68700000000,5.0982651e-08,-0.0200000102,0.0337728369,1.42589728e-05,7.13568028e-05,-0.02
1,18,518481.8,68800000000,5.04911541e-08,-0.02000001,0.0337727802,1.41159094e-05,7.13851769e-05,-0.02
1,18,518481.9,68900000000,4.99988493e-08,-0.0200000098,0.033772724,1.39727894e-05,7.14132648e-05,-0.02
1,18,518482,69000000000,4.95057445e-08,-0.0200000096,0.0337726684,1.38296136e-05,7.14410665e-05,-0.02
1,18,518482.1,69100000000,4.90118477e-08,-0.0200000094,0.0337726134,1.36863824e-05,7.14685815e-05,-0.02
1,18,518482.2,69200000000,4.85171666e-08,-0.0200000092,0.0337725589,1.35430964e-05,7.14958103e-05,-0.02
1,18,518482.3,69300000000,4.80217093e-08,-0.020000009,0.033772505,1.33997563e-05,7.15227525e-05,-0.02
1,18,518482.4,69400000000,4.75254836e-08,-0.0200000088,0.0337724517,1.32563626e-05,7.15494079e-05,-0.02
1,18,518482.5,69500000000,4.70284975e-08,-0.0200000086,0.033772399,1.31129158e-05,7.15757763e-05,-0.02
1,18,518482.6,69600000000,4.6530759e-08,-0.0200000084,0.0337723468,1.29694166e-05,7.1601858e-05,-0.02
1,18,518482.7,69700000000,4.6032276e-08,-0.0200000082,0.0337722952,1.28258655e-05,7.16276526e-05,-0.02
1,18,518482.8,69800000000,4.55330564e-08,-0.020000008,0.0337722442,1.26822631e-05,7.16531599e-05,-0.02
1,18,518482.9,69900000000,4.50331083e-08,-0.0200000079,0.0337721938,1.25386099e-05,7.16783802e-05,-0.02
1,18,518483,70000000000,4.45324397e-08,-0.0200000077,0.0337721439,1.23949066e-05,7.17033128e-05,-0.02
1,18,518483.1,70100000000,4.40310586e-08,-0.0200000075,0.0337720946,1.22511537e-05,7.17279584e-05,-0.02
1,18,518483.2,70200000000,4.3528973e-08,-0.0200000073,0.0337720459,1.21073518e-05,7.17523163e-05,-0.02
1,18,518483.3,70300000000,4.30261909e-08,-0.0200000072,0.0337719978,1.19635014e-05,7.17763864e-05,-0.02
1,18,518483.4,70400000000,4.25227204e-08,-0.020000007,0.0337719502,1.18196032e-05,7.18001687e-05,-0.02
1,18,518483.5,70500000000,4.20185696e-08,-0.0200000068,0.0337719032,1.16756577e-05,7.18236632e-05,-0.02
1,18,518483.6,70600000000,4.15137464e-08,-0.0200000066,0.0337718568,1.15316654e-05,7.184687e-05,-0.02
1,18,518483.7,70700000000,4.10082591e-08,-0.0200000065,0.033771811,1.13876271e-05,7.18697886e-05,-0.02
1,18,518483.8,70800000000,4.05021155e-08,-0.0200000063,0.0337717657,1.12435432e-05,7.1892419e-05,-0.02
1,18,518483.9,70900000000,3.9995324e-08,-0.0200000062,0.033771721,1.10994143e-05,7.19147616e-05,-0.02
1,18,518484,71000000000,3.94878925e-08,-0.020000006,0.0337716769,1.0955241e-05,7.19368155e-05,-0.02
1,18,518484.1,71100000000,3.89798293e-08,-0.0200000058,0.0337716334,1.08110239e-05,7.19585811e-05,-0.02
1,18,518484.2,71200000000,3.84711423e-08,-0.0200000057,0.0337715904,1.06667635e-05,7.19800582e-05,-0.02
1,18,518484.3,71300000000,3.79618399e-08,-0.0200000055,0.033771548,1.05224604e-05,7.20012468e-05,-0.02
1,18,518484.4,71400000000,3.745193e-08,-0.0200000054,0.0337715062,1.03781153e-05,7.20221468e-05,-0.02
1,18,518484.5,71500000000,3.69414209e-08,-0.0200000052,0.033771465,1.02337286e-05,7.20427583e-05,-0.02
1,18,518484.6,71600000000,3.64303207e-08,-0.0200000051,0.0337714244,1.0089301e-05,7.20630807e-05,-0.02
1,18,518484.7,71700000000,3.59186377e-08,-0.0200000049,0.0337713843,9.94483301e-06,7.20831143e-05,-0.02
1,18,518484.8,71800000000,3.54063799e-08,-0.0200000048,0.0337713448,9.80032525e-06,7.21028589e-05,-0.02
1,18,518484.9,71900000000,3.48935557e-08,-0.0200000047,0.0337713059,9.65577828e-06,7.21223144e-05,-0.02
1,18,518485,72000000000,3.43801731e-08,-0.0200000045,0.0337712676,9.51119268e-06,7.21414809e-05,-0.02
1,18,518485.1,72100000000,3.38662405e-08,-0.0200000044,0.0337712298,9.36656903e-06,7.21603581e-05,-0.02
1,18,518485.2,72200000000,3.3351766e-08,-0.0200000043,0.0337711926,9.2219079e-06,7.21789461e-05,-0.02
1,18,518485.3,72300000000,3.28367579e-08,-0.0200000041,0.0337711561,9.07720989e-06,7.21972445e-05,-0.02
1,18,518485.4,72400000000,3.23212244e-08,-0.020000004,0.03377112,8.93247555e-06,7.22152537e-05,-0.02
1,18,518485.5,72500000000,3.18051738e-08,-0.0200000039,0.0337710846,8.78770548e-06,7.22329734e-05,-0.02
1,18,518485.6,72600000000,3.12886143e-08,-0.0200000037,0.0337710497,8.64290026e-06,7.22504036e-05,-0.02
1,18,518485.7,72700000000,3.07715541e-08,-0.0200000036,0.0337710155,8.49806045e-06,7.22675441e-05,-0.02
1,18,518485.8,72800000000,3.02540017e-08,-0.0200000035,0.0337709818,8.35318665e-06,7.22843947e-05,-0.02
1,18,518485.9,72900000000,2.97359651e-08,-0.0200000034,0.0337709486,8.20827943e-06,7.23009558e-05,-0.02
1,18,518486,73000000000,2.92174528e-08,-0.0200000033,0.0337709161,8.06333937e-06,7.2317227e-05,-0.02
1,18,518486.1,73100000000,2.8698473e-08,-0.0200000031,0.0337708841,7.91836706e-06,7.23332081e-05,-0.02
1,18,518486.2,73200000000,2.8179034e-08,-0.020000003,0.0337708527,7.77336306e-06,7.23488995e-05,-0.02
1,18,518486.3,73300000000,2.76591442e-08,-0.0200000029,0.0337708219,7.62832797e-06,7.23643006e-05,-0.02
1,18,518486.4,73400000000,2.71388118e-08,-0.0200000028,0.0337707917,7.48326235e-06,7.23794119e-05,-0.02
1,18,518486.5,73500000000,2.66180452e-08,-0.0200000027,0.0337707621,7.3381668e-06,7.23942327e-05,-0.02
1,18,518486.6,73600000000,2.60968527e-08,-0.0200000026,0.033770733,7.19304189e-06,7.24087637e-05,-0.02
1,18,518486.7,73700000000,2.55752427e-08,-0.0200000025,0.0337707045,7.0478882e-06,7.24230041e-05,-0.02
1,18,518486.8,73800000000,2.50532234e-08,-0.0200000024,0.0337706766,6.90270632e-06,7.24369544e-05,-0.02
1,18,518486.9,73900000000,2.45308034e-08,-0.0200000023,0.0337706493,6.75749682e-06,7.24506141e-05,-0.02
1,18,518487,74000000000,2.40079908e-08,-0.0200000022,0.0337706226,6.61226029e-06,7.24639837e-05,-0.02
1,18,518487.1,74100000000,2.34847941e-08,-0.0200000021,0.0337705964,6.4669973e-06,7.24770625e-05,-0.02
1,18,518487.2,74200000000,2.29612216e-08,-0.020000002,0.0337705708,6.32170844e-06,7.24898507e-05,-0.02
1,18,518487.3,74300000000,2.24372817e-08,-0.0200000019,0.0337705459,6.17639429e-06,7.25023487e-05,-0.02
1,18,518487.4,74400000000,2.19129829e-08,-0.0200000018,0.0337705214,6.03105543e-06,7.25145557e-05,-0.02
1,18,518487.5,74500000000,2.13883334e-08,-0.0200000017,0.0337704976,5.88569244e-06,7.25264721e-05,-0.02
1,18,518487.6,74600000000,2.08633418e-08,-0.0200000016,0.0337704744,5.74030591e-06,7.25380977e-05,-0.02
1,18,518487.7,74700000000,2.03380163e-08,-0.0200000016,0.0337704517,5.59489641e-06,7.25494325e-05,-0.02
1,18,518487.8,74800000000,1.98123654e-08,-0.0200000015,0.0337704296,5.44946452e-06,7.25604765e-05,-0.02
1,18,518487.9,74900000000,1.92863975e-08,-0.0200000014,0.0337704081,5.30401084e-06,7.25712299e-05,-0.02
1,18,518488,75000000000,1.87601211e-08,-0.0200000013,0.0337703872,5.15853593e-06,7.25816922e-05,-0.02
1,18,518488.1,75100000000,1.82335444e-08,-0.0200000013,0.0337703668,5.01304039e-06,7.25918634e-05,-0.02
1,18,518488.2,75200000000,1.77066761e-08,-0.0200000012,0.0337703471,4.86752479e-06,7.26017437e-05,-0.02
1,18,518488.3,75300000000,1.71795244e-08,-0.0200000011,0.0337703279,4.72198972e-06,7.2611333e-05,-0.02
1,18,518488.4,75399999999,1.66520979e-08,-0.020000001,0.0337703093,4.57643576e-06,7.26206311e-05,-0.02
1,18,518488.5,75499999999,1.61244049e-08,-0.020000001,0.0337702913,4.43086348e-06,7.26296379e-05,-0.02
1,18,518488.6,75599999999,1.55964539e-08,-0.0200000009,0.0337702738,4.28527349e-06,7.26383538e-05,-0.02
1,18,518488.7,75699999999,1.50682534e-08,-0.0200000009,0.033770257,4.13966634e-06,7.26467788e-05,-0.02
1,18,518488.8,75799999999,1.45398118e-08,-0.0200000008,0.0337702407,3.99404264e-06,7.26549121e-05,-0.02
1,18,518488.9,75899999999,1.40111376e-08,-0.0200000007,0.033770225,3.84840296e-06,7.26627544e-05,-0.02
1,18,518489,75999999999,1.34822392e-08,-0.0200000007,0.0337702099,3.70274788e-06,7.26703054e-05,-0.02
1,18,518489.1,76099999999,1.29531251e-08,-0.0200000006,0.0337701954,3.55707798e-06,7.26775648e-05,-0.02
1,18,518489.2,76199999999,1.24238037e-08,-0.0200000006,0.0337701815,3.41139386e-06,7.26845331e-05,-0.02
1,18,518489.3,76299999999,1.18942835e-08,-0.0200000005,0.0337701681,3.26569609e-06,7.26912101e-05,-0.02
1,18,518489.4,76399999999,1.1364573e-08,-0.0200000005,0.0337701554,3.11998525e-06,7.26975954e-05,-0.02
1,18,518489.5,76499999999,1.08346808e-08,-0.0200000004,0.0337701432,2.97426193e-06,7.27036896e-05,-0.02
1,18,518489.6,76599999999,1.03046151e-08,-0.0200000004,0.0337701316,2.82852672e-06,7.27094923e-05,-0.02
1,18,518489.7,76699999999,9.77438457e-09,-0.0200000004,0.0337701205,2.68278018e-06,7.27150033e-05,-0.02
1,18,518489.8,76799999999,9.24399765e-09,-0.0200000003,0.0337701101,2.53702292e-06,7.27202231e-05,-0.02
1,18,518489.9,76899999999,8.71346283e-09,-0.0200000003,0.0337701003,2.3912555e-06,7.27251511e-05,-0.02
1,18,518490,76999999999,8.18278859e-09,-0.0200000003,0.033770091,2.24547852e-06,7.27297879e-05,-0.02
1,18,518490.1,77099999999,7.65198343e-09,-0.0200000002,0.0337700823,2.09969255e-06,7.27341328e-05,-0.02
1,18,518490.2,77199999999,7.12105584e-09,-0.0200000002,0.0337700742,1.95389818e-06,7.27381864e-05,-0.02
1,18,518490.3,77299999999,6.5900143e-09,-0.0200000002,0.0337700667,1.808096e-06,7.27419482e-05,-0.02
1,18,518490.4,77399999999,6.05886733e-09,-0.0200000001,0.0337700597,1.66228658e-06,7.27454187e-05,-0.02
1,18,518490.5,77499999999,5.52762342e-09,-0.0200000001,0.0337700534,1.51647051e-06,7.27485972e-05,-0.02
1,18,518490.6,77599999999,4.99629108e-09,-0.0200000001,0.0337700476,1.37064838e-06,7.27514842e-05,-0.02
1,18,518490.7,77699999999,4.46487877e-09,-0.0200000001,0.0337700424,1.22482076e-06,7.27540795e-05,-0.02
1,18,518490.8,77799999999,3.93339504e-09,-0.0200000001,0.0337700378,1.07898824e-06,7.27563835e-05,-0.02
1,18,518490.9,77899999999,3.40184838e-09,-0.02,0.0337700338,9.33151408e-07,7.27583955e-05,-0.02
1,18,518491,77999999999,2.87024728e-09,-0.02,0.0337700303,7.87310839e-07,7.27601159e-05,-0.02
1,18,518491.1,78099999999,2.33860025e-09,-0.02,0.0337700275,6.41467121e-07,7.27615445e-05,-0.02
1,18,518491.2,78199999999,1.80691582e-09,-0.02,0.0337700252,4.95620837e-07,7.27626816e-05,-0.02
1,18,518491.3,78299999999,1.27520247e-09,-0.02,0.0337700235,3.4977257e-07,7.27635269e-05,-0.02
1,18,518491.4,78399999999,7.43468721e-10,-0.02,0.0337700224,2.03922903e-07,7.27640806e-05,-0.02
1,18,518491.5,78499999999,2.11723066e-10,-0.02,0.0337700219,5.80724208e-08,7.27643426e-05,-0.02
1,18,518491.6,78599999999,-3.20025961e-10,-0.02,0.0337700219,-8.77782939e-08,7.27643129e-05,-0.02
1,18,518491.7,78699999999,-8.51769877e-10,-0.02,0.0337700226,-2.33628657e-07,7.27639917e-05,-0.02
1,18,518491.8,78799999999,-1.38350017e-09,-0.02,0.0337700238,-3.79478086e-07,7.27633784e-05,-0.02
1,18,518491.9,78899999999,-1.91520831e-09,-0.02,0.0337700256,-5.25325997e-07,7.27624736e-05,-0.02
1,18,518492,78999999999,-2.44688582e-09,-0.02,0.033770028,-6.71171806e-07,7.27612772e-05,-0.02
1,18,518492.1,79099999999,-2.97852418e-09,-0.02,0.033770031,-8.1701493e-07,7.27597891e-05,-0.02
1,18,518492.2,79199999999,-3.51011487e-09,-0.02,0.0337700345,-9.62854785e-07,7.27580093e-05,-0.02
1,18,518492.3,79299999999,-4.04164941e-09,-0.0200000001,0.0337700387,-1.10869079e-06,7.27559379e-05,-0.02
1,18,518492.4,79399999999,-4.57311929e-09,-0.0200000001,0.0337700434,-1.25452236e-06,7.27535746e-05,-0.02
1,18,518492.5,79499999999,-5.10451598e-09,-0.0200000001,0.0337700487,-1.4003489e-06,7.27509198e-05,-0.02
1,18,518492.6,79599999999,-5.63583102e-09,-0.0200000001,0.0337700546,-1.54616985e-06,7.27479735e-05,-0.02
1,18,518492.7,79699999999,-6.16705587e-09,-0.0200000001,0.0337700611,-1.69198461e-06,7.27447352e-05,-0.02
1,18,518492.8,79799999999,-6.69818205e-09,-0.0200000002,0.0337700681,-1.8377926e-06,7.27412057e-05,-0.02
1,18,518492.9,79899999999,-7.22920107e-09,-0.0200000002,0.0337700758,-1.98359324e-06,7.27373845e-05,-0.02
1,18,518493,79999999999,-7.76010441e-09,-0.0200000002,0.033770084,-2.12938595e-06,7.27332715e-05,-0.02
1,18,518493.1,80099999999,-8.2908836e-09,-0.0200000003,0.0337700928,-2.27517013e-06,7.27288672e-05,-0.02
1,18,518493.2,80199999999,-8.82153013e-09,-0.0200000003,0.0337701022,-2.42094521e-06,7.2724171e-05,-0.02
1,18,518493.3,80299999999,-9.35203552e-09,-0.0200000003,0.0337701122,-2.56671061e-06,7.27191837e-05,-0.02
1,18,518493.4,80399999999,-9.88239127e-09,-0.0200000004,0.0337701227,-2.71246574e-06,7.27139045e-05,-0.02
1,18,518493.5,80499999999,-1.04125889e-08,-0.0200000004,0.0337701339,-2.85821001e-06,7.27083342e-05,-0.02
1,18,518493.6,80599999999,-1.09426199e-08,-0.0200000005,0.0337701456,-3.00394285e-06,7.27024721e-05,-0.02
1,18,518493.7,80699999999,-1.14724759e-08,-0.0200000005,0.0337701579,-3.14966368e-06,7.26963185e-05,-0.02
1,18,518493.8,80799999999,-1.20021483e-08,-0.0200000005,0.0337701708,-3.2953719e-06,7.26898739e-05,-0.02
1,18,518493.9,80899999999,-1.25316286e-08,-0.0200000006,0.0337701843,-3.44106694e-06,7.26831375e-05,-0.02
1,18,518494,80999999999,-1.30609085e-08,-0.0200000006,0.0337701983,-3.58674821e-06,7.26761098e-05,-0.02
1,18,518494.1,81099999999,-1.35899794e-08,-0.0200000007,0.033770213,-3.73241513e-06,7.26687911e-05,-0.02
1,18,518494.2,81199999999,-1.41188328e-08,-0.0200000008,0.0337702282,-3.87806713e-06,7.26611808e-05,-0.02
1,18,518494.3,81299999999,-1.46474604e-08,-0.0200000008,0.033770244,-4.0237036e-06,7.26532792e-05,-0.02
1,18,518494.4,81399999999,-1.51758535e-08,-0.0200000009,0.0337702604,-4.16932398e-06,7.26450863e-05,-0.02
1,18,518494.5,81499999999,-1.57040039e-08,-0.0200000009,0.0337702773,-4.31492768e-06,7.26366023e-05,-0.02
1,18,518494.6,81599999999,-1.6231903e-08,-0.020000001,0.0337702949,-4.46051411e-06,7.26278271e-05,-0.02
1,18,518494.7,81699999999,-1.67595424e-08,-0.0200000011,0.033770313,-4.6060827e-06,7.26187607e-05,-0.02
1,18,518494.8,81799999999,-1.72869136e-08,-0.0200000011,0.0337703317,-4.75163287e-06,7.26094035e-05,-0.02
1,18,518494.9,81899999999,-1.78140083e-08,-0.0200000012,0.033770351,-4.89716402e-06,7.25997547e-05,-0.02
1,18,518495,81999999999,-1.83408179e-08,-0.0200000013,0.0337703709,-5.04267558e-06,7.25898152e-05,-0.02
1,18,518495.1,82099999999,-1.88673341e-08,-0.0200000013,0.0337703914,-5.18816697e-06,7.25795849e-05,-0.02
1,18,518495.2,82199999999,-1.93935484e-08,-0.0200000014,0.0337704124,-5.3336376e-06,7.25690632e-05,-0.02
1,18,518495.3,82299999999,-1.99194524e-08,-0.0200000015,0.033770434,-5.47908689e-06,7.25582508e-05,-0.02
1,18,518495.4,82399999999,-2.04450377e-08,-0.0200000016,0.0337704563,-5.62451426e-06,7.25471475e-05,-0.02
1,18,518495.5,82499999999,-2.09702959e-08,-0.0200000017,0.033770479,-5.76991913e-06,7.25357535e-05,-0.02
1,18,518495.6,82599999999,-2.14952185e-08,-0.0200000017,0.0337705024,-5.91530092e-06,7.25240686e-05,-0.02
1,18,518495.7,82699999999,-2.20197972e-08,-0.0200000018,0.0337705264,-6.06065904e-06,7.25120928e-05,-0.02
1,18,518495.8,82799999999,-2.25440236e-08,-0.0200000019,0.0337705509,-6.20599291e-06,7.24998266e-05,-0.02
1,18,518495.9,82899999999,-2.30678893e-08,-0.020000002,0.033770576,-6.35130196e-06,7.24872697e-05,-0.02
1,18,518496,82999999999,-2.3591386e-08,-0.0200000021,0.0337706017,-6.4965856e-06,7.24744223e-05,-0.02
1,18,518496.1,83099999999,-2.41145051e-08,-0.0200000022,0.033770628,-6.64184324e-06,7.24612843e-05,-0.02
1,18,518496.2,83199999999,-2.46372384e-08,-0.0200000023,0.0337706548,-6.78707432e-06,7.24478556e-05,-0.02
1,18,518496.3,83299999999,-2.51595776e-08,-0.0200000024,0.0337706823,-6.93227824e-06,7.24341368e-05,-0.02
1,18,518496.4,83399999999,-2.56815141e-08,-0.0200000025,0.0337707103,-7.07745443e-06,7.24201273e-05,-0.02
1,18,518496.5,83499999999,-2.62030398e-08,-0.0200000026,0.0337707389,-7.2226023e-06,7.24058278e-05,-0.02
1,18,518496.6,83599999999,-2.67241462e-08,-0.0200000027,0.0337707681,-7.36772128e-06,7.23912377e-05,-0.02
1,18,518496.7,83699999999,-2.72448251e-08,-0.0200000028,0.0337707978,-7.51281078e-06,7.23763577e-05,-0.02
1,18,518496.8,83799999999,-2.7765068e-08,-0.0200000029,0.0337708282,-7.65787022e-06,7.23611874e-05,-0.02
1,18,518496.9,83899999999,-2.82848667e-08,-0.020000003,0.0337708591,-7.80289903e-06,7.23457269e-05,-0.02
1,18,518497,83999999999,-2.88042128e-08,-0.0200000032,0.0337708906,-7.94789662e-06,7.23299767e-05,-0.02
1,18,518497.1,84099999999,-2.9323098e-08,-0.0200000033,0.0337709227,-8.09286242e-06,7.23139363e-05,-0.02
1,18,518497.2,84199999999,-2.98415141e-08,-0.0200000034,0.0337709553,-8.23779583e-06,7.22976063e-05,-0.02
1,18,518497.3,84299999999,-3.03594528e-08,-0.0200000035,0.0337709886,-8.38269629e-06,7.22809862e-05,-0.02
1,18,518497.4,84399999999,-3.08769056e-08,-0.0200000036,0.0337710224,-8.52756322e-06,7.22640764e-05,-0.02
1,18,518497.5,84499999999,-3.13938645e-08,-0.0200000038,0.0337710568,-8.67239603e-06,7.22468768e-05,-0.02
1,18,518497.6,84599999999,-3.1910321e-08,-0.0200000039,0.0337710918,-8.81719414e-06,7.2229388e-05,-0.02
1,18,518497.7,84699999999,-3.2426267e-08,-0.020000004,0.0337711273,-8.96195698e-06,7.22116093e-05,-0.02
1,18,518497.8,84799999999,-3.29416942e-08,-0.0200000041,0.0337711635,-9.10668396e-06,7.21935411e-05,-0.02
1,18,518497.9,84899999999,-3.34565942e-08,-0.0200000043,0.0337712002,-9.25137451e-06,7.21751835e-05,-0.02
1,18,518498,84999999999,-3.3970959e-08,-0.0200000044,0.0337712375,-9.39602805e-06,7.21565366e-05,-0.02
1,18,518498.1,85099999999,-3.44847803e-08,-0.0200000046,0.0337712753,-9.540644e-06,7.21376005e-05,-0.02
1,18,518498.2,85199999999,-3.49980498e-08,-0.0200000047,0.0337713138,-9.68522178e-06,7.21183751e-05,-0.02
1,18,518498.3,85299999999,-3.55107593e-08,-0.0200000048,0.0337713528,-9.82976081e-06,7.20988607e-05,-0.02
1,18,518498.4,85399999999,-3.60229007e-08,-0.020000005,0.0337713924,-9.97426051e-06,7.20790572e-05,-0.02
1,18,518498.5,85499999999,-3.65344657e-08,-0.0200000051,0.0337714326,-1.01187203e-05,7.20589648e-05,-0.02
1,18,518498.6,85599999999,-3.70454461e-08,-0.0200000053,0.0337714734,-1.02631396e-05,7.20385836e-05,-0.02
1,18,518498.7,85699999999,-3.75558338e-08,-0.0200000054,0.0337715147,-1.04075179e-05,7.20179135e-05,-0.02
1,18,518498.8,85799999999,-3.80656206e-08,-0.0200000056,0.0337715566,-1.05518545e-05,7.19969548e-05,-0.02
1,18,518498.9,85899999999,-3.85747984e-08,-0.0200000057,0.0337715991,-1.06961489e-05,7.19757074e-05,-0.02
1,18,518499,85999999999,-3.9083359e-08,-0.0200000059,0.0337716422,-1.08404005e-05,7.19541716e-05,-0.02
1,18,518499.1,86099999999,-3.95912942e-08,-0.020000006,0.0337716858,-1.09846088e-05,7.19323469e-05,-0.02
1,18,518499.2,86199999999,-4.0098596e-08,-0.0200000062,0.0337717301,-1.11287731e-05,7.19102343e-05,-0.02
1,18,518499.3,86299999999,-4.06052562e-08,-0.0200000064,0.0337717749,-1.12728929e-05,7.18878333e-05,-0.02
1,18,518499.4,86399999999,-4.11112668e-08,-0.0200000065,0.0337718202,-1.14169676e-05,7.18651442e-05,-0.02
1,18,518499.5,86499999999,-4.16166195e-08,-0.0200000067,0.0337718662,-1.15609966e-05,7.18421669e-05,-0.02
1,18,518499.6,86599999999,-4.21213064e-08,-0.0200000068,0.0337719127,-1.17049793e-05,7.18189014e-05,-0.02
1,18,518499.7,86699999999,-4.26253193e-08,-0.020000007,0.0337719598,-1.18489152e-05,7.17953483e-05,-0.02
1,18,518499.8,86799999999,-4.31286503e-08,-0.0200000072,0.0337720075,-1.19928038e-05,7.17715071e-05,-0.02
1,18,518499.9,86899999999,-4.36312911e-08,-0.0200000074,0.0337720558,-1.21366443e-05,7.17473785e-05,-0.02
1,18,518500,86999999999,-4.41332339e-08,-0.0200000075,0.0337721046,-1.22804363e-05,7.17229619e-05,-0.02
1,18,518500.1,87099999999,-4.46344706e-08,-0.0200000077,0.033772154,-1.24241791e-05,7.16982582e-05,-0.02
1,18,518500.2,87199999999,-4.5134993e-08,-0.0200000079,0.033772204,-1.25678723e-05,7.16732667e-05,-0.02
1,18,518500.3,87299999999,-4.56347934e-08,-0.0200000081,0.0337722545,-1.27115152e-05,7.16479882e-05,-0.02
1,18,518500.4,87399999999,-4.61338636e-08,-0.0200000083,0.0337723057,-1.28551072e-05,7.16224221e-05,-0.02
1,18,518500.5,87499999999,-4.66321956e-08,-0.0200000084,0.0337723574,-1.29986478e-05,7.1596569e-05,-0.02
1,18,518500.6,87599999999,-4.71297815e-08,-0.0200000086,0.0337724097,-1.31421364e-05,7.15704291e-05,-0.02
1,18,518500.7,87699999999,-4.76266134e-08,-0.0200000088,0.0337724625,-1.32855724e-05,7.15440021e-05,-0.02
1,18,518500.8,87799999999,-4.81226832e-08,-0.020000009,0.0337725159,-1.34289552e-05,7.15172882e-05,-0.02
1,18,518500.9,87899999999,-4.86179831e-08,-0.0200000092,0.0337725699,-1.35722844e-05,7.14902879e-05,-0.02
1,18,518501,87999999999,-4.91125051e-08,-0.0200000094,0.0337726245,-1.37155592e-05,7.14630008e-05,-0.02
1,18,518501.1,88099999999,-4.96062413e-08,-0.0200000096,0.0337726797,-1.38587791e-05,7.14354272e-05,-0.02
1,18,518501.2,88199999999,-5.00991837e-08,-0.0200000098,0.0337727354,-1.40019437e-05,7.14075672e-05,-0.02
1,18,518501.3,88299999999,-5.05913246e-08,-0.02000001,0.0337727917,-1.41450522e-05,7.13794209e-05,-0.02
1,18,518501.4,88399999999,-5.10826561e-08,-0.0200000102,0.0337728485,-1.42881041e-05,7.13509888e-05,-0.02
1,18,518501.5,88499999999,-5.15731702e-08,-0.0200000104,0.033772906,-1.44310988e-05,7.13222704e-05,-0.02
1,18,518501.6,88599999999,-5.20628591e-08,-0.0200000106,0.033772964,-1.45740358e-05,7.1293266e-05,-0.02
1,18,518501.7,88699999999,-5.25517151e-08,-0.0200000108,0.0337730226,-1.47169145e-05,7.12639759e-05,-0.02
1,18,518501.8,88799999999,-5.30397302e-08,-0.020000011,0.0337730817,-1.48597344e-05,7.12344001e-05,-0.02
1,18,518501.9,88899999999,-5.35268966e-08,-0.0200000113,0.0337731414,-1.50024948e-05,7.12045387e-05,-0.02
1,18,518502,88999999999,-5.40132067e-08,-0.0200000115,0.0337732017,-1.51451951e-05,7.11743918e-05,-0.02
1,18,518502.1,89099999999,-5.44986525e-08,-0.0200000117,0.0337732626,-1.52878349e-05,7.11439597e-05,-0.02
1,18,518502.2,89199999999,-5.49832264e-08,-0.0200000119,0.033773324,-1.54304135e-05,7.11132423e-05,-0.02
1,18,518502.3,89299999999,-5.54669205e-08,-0.0200000121,0.033773386,-1.55729304e-05,7.10822399e-05,-0.02
1,18,518502.4,89399999999,-5.59497272e-08,-0.0200000123,0.0337734486,-1.57153849e-05,7.10509525e-05,-0.02
1,18,518502.5,89499999999,-5.64316387e-08,-0.0200000126,0.0337735117,-1.58577766e-05,7.101938e-05,-0.02
1,18,518502.6,89599999999,-5.69126472e-08,-0.0200000128,0.0337735755,-1.60001049e-05,7.0987523e-05,-0.02
1,18,518502.7,89699999999,-5.73927452e-08,-0.020000013,0.0337736397,-1.61423692e-05,7.09553815e-05,-0.02
1,18,518502.8,89799999999,-5.78719249e-08,-0.0200000133,0.0337737046,-1.62845688e-05,7.09229555e-05,-0.02
1,18,518502.9,89899999999,-5.83501786e-08,-0.0200000135,0.03377377,-1.64267033e-05,7.08902453e-05,-0.02
1,18,518503,89999999999,-5.88274987e-08,-0.0200000137,0.033773836,-1.65687721e-05,7.08572505e-05,-0.02
1,18,518503.1,90099999999,-5.93038776e-08,-0.020000014,0.0337739026,-1.67107747e-05,7.0823972e-05,-0.02
1,18,518503.2,90199999999,-5.97793076e-08,-0.0200000142,0.0337739697,-1.68527103e-05,7.07904092e-05,-0.02
1,18,518503.3,90299999999,-6.02537812e-08,-0.0200000144,0.0337740374,-1.69945786e-05,7.0756563e-05,-0.02
1,18,518503.4,90399999999,-6.07272907e-08,-0.0200000147,0.0337741056,-1.71363788e-05,7.07224331e-05,-0.02
1,18,518503.5,90499999999,-6.11998286e-08,-0.0200000149,0.0337741745,-1.72781105e-05,7.06880194e-05,-0.02
1,18,518503.6,90599999999,-6.16713872e-08,-0.0200000152,0.0337742439,-1.74197731e-05,7.06533226e-05,-0.02
1,18,518503.7,90699999999,-6.21419592e-08,-0.0200000154,0.0337743138,-1.75613659e-05,7.06183423e-05,-0.02
1,18,518503.8,90799999999,-6.26115368e-08,-0.0200000157,0.0337743843,-1.77028886e-05,7.05830792e-05,-0.02
1,18,518503.9,90899999999,-6.30801127e-08,-0.0200000159,0.0337744554,-1.78443404e-05,7.05475328e-05,-0.02
1,18,518504,90999999999,-6.35476793e-08,-0.0200000162,0.0337745271,-1.79857208e-05,7.05117039e-05,-0.02
1,18,518504.1,91099999999,-6.40142291e-08,-0.0200000164,0.0337745993,-1.81270292e-05,7.0475592e-05,-0.02
1,18,518504.2,91199999999,-6.44797547e-08,-0.0200000167,0.0337746721,-1.82682652e-05,7.04391977e-05,-0.02
1,18,518504.3,91299999999,-6.49442487e-08,-0.0200000169,0.0337747454,-1.8409428e-05,7.04025212e-05,-0.02
1,18,518504.4,91399999999,-6.54077035e-08,-0.0200000172,0.0337748194,-1.85505172e-05,7.03655621e-05,-0.02
1,18,518504.5,91499999999,-6.58701118e-08,-0.0200000175,0.0337748938,-1.86915322e-05,7.0328321e-05,-0.02
1,18,518504.6,91599999999,-6.63314662e-08,-0.0200000177,0.0337749689,-1.88324724e-05,7.02907983e-05,-0.02
1,18,518504.7,91699999999,-6.67917593e-08,-0.020000018,0.0337750445,-1.89733372e-05,7.02529934e-05,-0.02
1,18,518504.8,91799999999,-6.72509837e-08,-0.0200000183,0.0337751207,-1.91141262e-05,7.0214907e-05,-0.02
1,18,518504.9,91899999999,-6.77091321e-08,-0.0200000185,0.0337751974,-1.92548387e-05,7.0176539e-05,-0.02
1,18,518505,91999999999,-6.81661971e-08,-0.0200000188,0.0337752747,-1.93954741e-05,7.013789e-05,-0.02
1,18,518505.1,92099999999,-6.86221715e-08,-0.0200000191,0.0337753526,-1.9536032e-05,7.00989595e-05,-0.02
1,18,518505.2,92199999999,-6.9077048e-08,-0.0200000194,0.033775431,-1.96765117e-05,7.0059748e-05,-0.02
1,18,518505.3,92299999999,-6.95308192e-08,-0.0200000196,0.03377551,-1.98169127e-05,7.00202557e-05,-0.02
1,18,518505.4,92399999999,-6.99834779e-08,-0.0200000199,0.0337755895,-1.99572344e-05,6.99804826e-05,-0.02
1,18,518505.5,92499999999,-7.04350169e-08,-0.0200000202,0.0337756696,-2.00974763e-05,6.9940429e-05,-0.02
1,18,518505.6,92599999999,-7.08854289e-08,-0.0200000205,0.0337757503,-2.02376377e-05,6.9900095e-05,-0.02
1,18,518505.7,92699999999,-7.13347068e-08,-0.0200000208,0.0337758315,-2.03777182e-05,6.98594807e-05,-0.02
1,18,518505.8,92799999999,-7.17828433e-08,-0.020000021,0.0337759133,-2.05177172e-05,6.98185864e-05,-0.02
1,18,518505.9,92899999999,-7.22298313e-08,-0.0200000213,0.0337759956,-2.06576341e-05,6.97774122e-05,-0.02
1,18,518506,92999999999,-7.26756636e-08,-0.0200000216,0.0337760786,-2.07974683e-05,6.97359583e-05,-0.02
1,18,518506.1,93099999999,-7.31203331e-08,-0.0200000219,0.033776162,-2.09372193e-05,6.96942248e-05,-0.02
1,18,518506.2,93199999999,-7.35638327e-08,-0.0200000222,0.033776246,-2.10768866e-05,6.96522118e-05,-0.02
1,18,518506.3,93299999999,-7.40061552e-08,-0.0200000225,0.0337763306,-2.12164696e-05,6.96099197e-05,-0.02
1,18,518506.4,93399999999,-7.44472937e-08,-0.0200000228,0.0337764158,-2.13559676e-05,6.95673482e-05,-0.02
1,18,518506.5,93499999999,-7.4887241e-08,-0.0200000231,0.0337765015,-2.14953803e-05,6.95244981e-05,-0.02
1,18,518506.6,93599999999,-7.53259901e-08,-0.0200000234,0.0337765877,-2.16347069e-05,6.94813692e-05,-0.02
1,18,518506.7,93699999999,-7.5763534e-08,-0.0200000237,0.0337766745,-2.1773947e-05,6.94379618e-05,-0.02
1,18,518506.8,93799999999,-7.61998657e-08,-0.020000024,0.0337767619,-2.19131e-05,6.93942761e-05,-0.02
1,18,518506.9,93899999999,-7.66349782e-08,-0.0200000243,0.0337768498,-2.20521653e-05,6.93503118e-05,-0.02
1,18,518507,93999999999,-7.70688645e-08,-0.0200000246,0.0337769383,-2.21911424e-05,6.93060698e-05,-0.02
1,18,518507.1,94099999999,-7.75015177e-08,-0.0200000249,0.0337770274,-2.23300307e-05,6.92615499e-05,-0.02
1,18,518507.2,94199999999,-7.79329309e-08,-0.0200000252,0.033777117,-2.24688296e-05,6.92167521e-05,-0.02
1,18,518507.3,94299999999,-7.83630972e-08,-0.0200000256,0.0337772071,-2.26075387e-05,6.91716771e-05,-0.02
1,18,518507.4,94399999999,-7.87920097e-08,-0.0200000259,0.0337772978,-2.27461574e-05,6.91263245e-05,-0.02
1,18,518507.5,94499999999,-7.92196615e-08,-0.0200000262,0.0337773891,-2.2884685e-05,6.9080695e-05,-0.02
1,18,518507.6,94599999999,-7.96460458e-08,-0.0200000265,0.0337774809,-2.30231211e-05,6.90347886e-05,-0.02
1,18,518507.7,94699999999,-8.00711557e-08,-0.0200000268,0.0337775732,-2.31614651e-05,6.89886051e-05,-0.02
1,18,518507.8,94799999999,-8.04949845e-08,-0.0200000271,0.0337776662,-2.32997164e-05,6.8942145e-05,-0.02
1,18,518507.9,94899999999,-8.09175254e-08,-0.0200000275,0.0337777596,-2.34378745e-05,6.88954089e-05,-0.02
1,18,518508,94999999999,-8.13387717e-08,-0.0200000278,0.0337778537,-2.35759388e-05,6.88483962e-05,-0.02
1,18,518508.1,95099999999,-8.17587165e-08,-0.0200000281,0.0337779482,-2.37139088e-05,6.88011078e-05,-0.02
1,18,518508.2,95199999999,-8.21773531e-08,-0.0200000284,0.0337780434,-2.3851784e-05,6.87535433e-05,-0.02
1,18,518508.3,95299999999,-8.2594675e-08,-0.0200000288,0.033778139,-2.39895637e-05,6.87057031e-05,-0.02
1,18,518508.4,95399999999,-8.30106753e-08,-0.0200000291,0.0337782353,-2.41272474e-05,6.86575878e-05,-0.02
1,18,518508.5,95499999999,-8.34253474e-08,-0.0200000294,0.033778332,-2.42648347e-05,6.86091969e-05,-0.02
1,18,518508.6,95599999999,-8.38386847e-08,-0.0200000298,0.0337784294,-2.44023248e-05,6.8560531e-05,-0.02
1,18,518508.7,95699999999,-8.42506807e-08,-0.0200000301,0.0337785273,-2.45397173e-05,6.85115905e-05,-0.02
1,18,518508.8,95799999999,-8.46613286e-08,-0.0200000304,0.0337786257,-2.46770117e-05,6.8462375e-05,-0.02
1,18,518508.9,95899999999,-8.50706219e-08,-0.0200000308,0.0337787247,-2.48142073e-05,6.84128851e-05,-0.02
1,18,518509,95999999999,-8.54785541e-08,-0.0200000311,0.0337788242,-2.49513036e-05,6.83631208e-05,-0.02
1,18,518509.1,96099999999,-8.58851187e-08,-0.0200000315,0.0337789243,-2.50883002e-05,6.83130825e-05,-0.02
1,18,518509.2,96199999999,-8.62903091e-08,-0.0200000318,0.0337790249,-2.52251963e-05,6.82627704e-05,-0.02
1,18,518509.3,96299999999,-8.66941188e-08,-0.0200000322,0.0337791261,-2.53619916e-05,6.82121848e-05,-0.02
1,18,518509.4,96399999999,-8.70965415e-08,-0.0200000325,0.0337792278,-2.54986854e-05,6.81613254e-05,-0.02
1,18,518509.5,96499999999,-8.74975706e-08,-0.0200000329,0.03377933,-2.56352771e-05,6.81101928e-05,-0.02
1,18,518509.6,96599999999,-8.78971997e-08,-0.0200000332,0.0337794329,-2.57717663e-05,6.80587871e-05,-0.02
1,18,518509.7,96699999999,-8.82954225e-08,-0.0200000336,0.0337795362,-2.59081524e-05,6.80071086e-05,-0.02
1,18,518509.8,96799999999,-8.86922326e-08,-0.0200000339,0.0337796401,-2.60444349e-05,6.79551574e-05,-0.02
1,18,518509.9,96899999999,-8.90876236e-08,-0.0200000343,0.0337797446,-2.61806132e-05,6.79029337e-05,-0.02
1,18,518510,96999999999,-8.94815892e-08,-0.0200000346,0.0337798495,-2.63166867e-05,6.78504378e-05,-0.02
1,18,518510.1,97099999999,-8.98741231e-08,-0.020000035,0.0337799551,-2.64526549e-05,6.77976699e-05,-0.02
1,18,518510.2,97199999999,-9.0265219e-08,-0.0200000353,0.0337800612,-2.65885173e-05,6.77446302e-05,-0.02
1,18,518510.3,97299999999,-9.06548706e-08,-0.0200000357,0.0337801678,-2.67242734e-05,6.76913188e-05,-0.02
1,18,518510.4,97399999999,-9.10430718e-08,-0.0200000361,0.0337802749,-2.68599225e-05,6.76377361e-05,-0.02
1,18,518510.5,97499999999,-9.14298163e-08,-0.0200000364,0.0337803826,-2.69954642e-05,6.75838819e-05,-0.02
1,18,518510.6,97599999999,-9.18150979e-08,-0.0200000368,0.0337804909,-2.71308978e-05,6.75297573e-05,-0.02
1,18,518510.7,97699999999,-9.21989105e-08,-0.0200000372,0.0337805997,-2.7266223e-05,6.74753614e-05,-0.02
1,18,518510.8,97799999999,-9.25812479e-08,-0.0200000375,0.033780709,-2.7401439e-05,6.74206952e-05,-0.02
1,18,518510.9,97899999999,-9.2962104e-08,-0.0200000379,0.0337808189,-2.75365454e-05,6.73657588e-05,-0.02
1,18,518511,97999999999,-9.33414727e-08,-0.0200000383,0.0337809293,-2.76715417e-05,6.73105519e-05,-0.02
1,18,518511.1,98099999999,-9.3719348e-08,-0.0200000387,0.0337810403,-2.78064273e-05,6.72550755e-05,-0.02
1,18,518511.2,98199999999,-9.40957238e-08,-0.020000039,0.0337811517,-2.79412016e-05,6.71993294e-05,-0.02
1,18,518511.3,98299999999,-9.4470594e-08,-0.0200000394,0.0337812638,-2.80758641e-05,6.71433139e-05,-0.02
1,18,518511.4,98399999999,-9.48439526e-08,-0.0200000398,0.0337813763,-2.82104143e-05,6.7087029e-05,-0.02
1,18,518511.5,98499999999,-9.52157938e-08,-0.0200000402,0.0337814894,-2.83448517e-05,6.70304753e-05,-0.02
1,18,518511.6,98599999999,-9.55861116e-08,-0.0200000405,0.0337816031,-2.84791756e-05,6.69736529e-05,-0.02
1,18,518511.7,98699999999,-9.59548999e-08,-0.0200000409,0.0337817173,-2.86133856e-05,6.69165616e-05,-0.02
1,18,518511.8,98799999999,-9.6322153e-08,-0.0200000413,0.033781832,-2.87474812e-05,6.68592024e-05,-0.02
1,18,518511.9,98899999999,-9.66878649e-08,-0.0200000417,0.0337819472,-2.88814617e-05,6.68015748e-05,-0.02
1,18,518512,98999999999,-9.70520299e-08,-0.0200000421,0.033782063,-2.90153267e-05,6.67436797e-05,-0.02
1,18,518512.1,99099999999,-9.7414642e-08,-0.0200000425,0.0337821794,-2.91490756e-05,6.66855166e-05,-0.02
1,18,518512.2,99199999999,-9.77756954e-08,-0.0200000429,0.0337822962,-2.92827079e-05,6.66270865e-05,-0.02
1,18,518512.3,99299999999,-9.81351845e-08,-0.0200000433,0.0337824136,-2.94162231e-05,6.6568389e-05,-0.02
1,18,518512.4,99399999999,-9.84931034e-08,-0.0200000437,0.0337825315,-2.95496205e-05,6.65094249e-05,-0.02
1,18,518512.5,99499999999,-9.88494464e-08,-0.020000044,0.03378265,-2.96828998e-05,6.64501938e-05,-0.02
1,18,518512.6,99599999999,-9.92042078e-08,-0.0200000444,0.033782769,-2.98160603e-05,6.63906965e-05,-0.02
1,18,518512.7,99699999999,-9.9557382e-08,-0.0200000448,0.0337828885,-2.99491015e-05,6.63309328e-05,-0.02
1,18,518512.8,99799999999,-9.99089632e-08,-0.0200000452,0.0337830086,-3.00820229e-05,6.62709034e-05,-0.02
1,18,518512.9,99899999999,-1.00258946e-07,-0.0200000456,0.0337831292,-3.02148239e-05,6.6210608e-05,-0.02
1,18,518513,99999999999,-1.00607324e-07,-0.020000046,0.0337832503,-3.03475041e-05,6.61500472e-05,-0.02
1,18,518513.1,100099999999,-1.00954093e-07,-0.0200000464,0.0337833719,-3.04800629e-05,6.60892211e-05,-0.02
1,18,518513.2,100199999999,-1.01299247e-07,-0.0200000469,0.0337834941,-3.06124997e-05,6.60281303e-05,-0.02
1,18,518513.3,100299999999,-1.0164278e-07,-0.0200000473,0.0337836168,-3.07448141e-05,6.59667745e-05,-0.02
1,18,518513.4,100399999999,-1.01984686e-07,-0.0200000477,0.0337837401,-3.08770054e-05,6.59051542e-05,-0.02
1,18,518513.5,100499999999,-1.02324961e-07,-0.0200000481,0.0337838638,-3.10090732e-05,6.584327e-05,-0.02
1,18,518513.6,100599999999,-1.02663598e-07,-0.0200000485,0.0337839881,-3.1141017e-05,6.57811214e-05,-0.02
1,18,518513.7,100699999999,-1.03000593e-07,-0.0200000489,0.0337841129,-3.12728362e-05,6.57187091e-05,-0.02
1,18,518513.8,100799999999,-1.0333594e-07,-0.0200000493,0.0337842383,-3.14045303e-05,6.56560333e-05,-0.02
1,18,518513.9,100899999999,-1.03669634e-07,-0.0200000497,0.0337843642,-3.15360987e-05,6.55930945e-05,-0.02
1,18,518514,100999999999,-1.04001669e-07,-0.0200000501,0.0337844906,-3.1667541e-05,6.55298922e-05,-0.02
1,18,518514.1,101099999999,-1.0433204e-07,-0.0200000506,0.0337846175,-3.17988566e-05,6.54664277e-05,-0.02
1,18,518514.2,101199999999,-1.04660741e-07,-0.020000051,0.033784745,-3.1930045e-05,6.54027004e-05,-0.02
1,18,518514.3,101299999999,-1.04987768e-07,-0.0200000514,0.0337848729,-3.20611056e-05,6.53387109e-05,-0.02
1,18,518514.4,101399999999,-1.05313115e-07,-0.0200000518,0.0337850014,-3.2192038e-05,6.52744594e-05,-0.02
1,18,518514.5,101499999999,-1.05636777e-07,-0.0200000522,0.0337851305,-3.23228416e-05,6.52099461e-05,-0.02
1,18,518514.6,101599999999,-1.05958749e-07,-0.0200000527,0.03378526,-3.24535158e-05,6.51451714e-05,-0.02
1,18,518514.7,101699999999,-1.06279026e-07,-0.0200000531,0.0337853901,-3.25840603e-05,6.50801355e-05,-0.02
1,18,518514.8,101799999999,-1.06597602e-07,-0.0200000535,0.0337855207,-3.27144743e-05,6.50148386e-05,-0.02
1,18,518514.9,101899999999,-1.06914473e-07,-0.0200000539,0.0337856518,-3.28447575e-05,6.49492811e-05,-0.02
1,18,518515,101999999999,-1.07229633e-07,-0.0200000544,0.0337857834,-3.29749094e-05,6.48834631e-05,-0.02
1,18,518515.1,102099999999,-1.07543077e-07,-0.0200000548,0.0337859156,-3.31049292e-05,6.48173849e-05,-0.02
1,18,518515.2,102199999999,-1.07854801e-07,-0.0200000552,0.0337860482,-3.32348167e-05,6.47510469e-05,-0.02
1,18,518515.3,102299999999,-1.08164798e-07,-0.0200000557,0.0337861814,-3.33645712e-05,6.46844492e-05,-0.02
1,18,518515.4,102399999999,-1.08473066e-07,-0.0200000561,0.0337863151,-3.34941922e-05,6.46175922e-05,-0.02
1,18,518515.5,102499999999,-1.08779597e-07,-0.0200000565,0.0337864494,-3.36236792e-05,6.45504761e-05,-0.02
1,18,518515.6,102599999999,-1.09084389e-07,-0.020000057,0.0337865841,-3.37530317e-05,6.44831008e-05,-0.02
1,18,518515.7,102699999999,-1.09387435e-07,-0.0200000574,0.0337867194,-3.38822491e-05,6.44154673e-05,-0.02
1,18,518515.8,102799999999,-1.0968873e-07,-0.0200000578,0.0337868552,-3.4011331e-05,6.43475755e-05,-0.02
1,18,518515.9,102899999999,-1.09988271e-07,-0.0200000583,0.0337869915,-3.41402769e-05,6.42794257e-05,-0.02
1,18,518516,102999999999,-1.10286052e-07,-0.0200000587,0.0337871283,-3.42690861e-05,6.42110181e-05,-0.02
1,18,518516.1,103099999999,-1.10582068e-07,-0.0200000592,0.0337872656,-3.43977583e-05,6.4142353e-05,-0.02
1,18,518516.2,103199999999,-1.10876315e-07,-0.0200000596,0.0337874035,-3.45262928e-05,6.40734305e-05,-0.02
1,18,518516.3,103299999999,-1.11168788e-07,-0.02000006,0.0337875418,-3.46546893e-05,6.40042513e-05,-0.02
1,18,518516.4,103399999999,-1.11459483e-07,-0.0200000605,0.0337876807,-3.47829471e-05,6.39348155e-05,-0.02
1,18,518516.5,103499999999,-1.11748393e-07,-0.0200000609,0.0337878201,-3.49110657e-05,6.38651233e-05,-0.02
1,18,518516.6,103599999999,-1.12035516e-07,-0.0200000614,0.03378796,-3.50390447e-05,6.37951751e-05,-0.02
1,18,518516.7,103699999999,-1.12320847e-07,-0.0200000618,0.0337881004,-3.51668834e-05,6.37249707e-05,-0.02
1,18,518516.8,103799999999,-1.1260438e-07,-0.0200000623,0.0337882413,-3.52945815e-05,6.36545108e-05,-0.02
1,18,518516.9,103899999999,-1.12886112e-07,-0.0200000627,0.0337883827,-3.54221384e-05,6.3583796e-05,-0.02
1,18,518517,103999999999,-1.13166037e-07,-0.0200000632,0.0337885247,-3.55495536e-05,6.35128261e-05,-0.02
1,18,518517.1,104099999999,-1.13444152e-07,-0.0200000636,0.0337886671,-3.56768266e-05,6.34416016e-05,-0.02
1,18,518517.2,104199999999,-1.13720452e-07,-0.0200000641,0.0337888101,-3.58039569e-05,6.33701225e-05,-0.02
1,18,518517.3,104299999999,-1.13994932e-07,-0.0200000645,0.0337889535,-3.59309439e-05,6.32983895e-05,-0.02
1,18,518517.4,104399999999,-1.14267588e-07,-0.020000065,0.0337890975,-3.60577871e-05,6.32264024e-05,-0.02
1,18,518517.5,104499999999,-1.14538416e-07,-0.0200000655,0.033789242,-3.61844861e-05,6.3154162e-05,-0.02
1,18,518517.6,104599999999,-1.14807411e-07,-0.0200000659,0.033789387,-3.63110404e-05,6.30816681e-05,-0.02
1,18,518517.7,104699999999,-1.1507457e-07,-0.0200000664,0.0337895324,-3.64374494e-05,6.30089216e-05,-0.02
1,18,518517.8,104799999999,-1.15339887e-07,-0.0200000668,0.0337896784,-3.65637126e-05,6.29359221e-05,-0.02
1,18,518517.9,104899999999,-1.15603359e-07,-0.0200000673,0.0337898249,-3.66898295e-05,6.28626705e-05,-0.02
1,18,518518,104999999999,-1.15864981e-07,-0.0200000678,0.033789972,-3.68157997e-05,6.27891665e-05,-0.02
1,18,518518.1,105099999999,-1.16124749e-07,-0.0200000682,0.0337901195,-3.69416225e-05,6.27154111e-05,-0.02
1,18,518518.2,105199999999,-1.16382659e-07,-0.0200000687,0.0337902675,-3.70672976e-05,6.26414039e-05,-0.02
1,18,518518.3,105299999999,-1.16638708e-07,-0.0200000692,0.033790416,-3.71928244e-05,6.25671457e-05,-0.02
1,18,518518.4,105399999999,-1.16892889e-07,-0.0200000696,0.033790565,-3.73182024e-05,6.24926364e-05,-0.02
1,18,518518.5,105499999999,-1.17145201e-07,-0.0200000701,0.0337907145,-3.74434311e-05,6.24178768e-05,-0.02
1,18,518518.6,105599999999,-1.17395639e-07,-0.0200000706,0.0337908645,-3.756851e-05,6.23428666e-05,-0.02
1,18,518518.7,105699999999,-1.17644198e-07,-0.020000071,0.0337910151,-3.76934386e-05,6.22676064e-05,-0.02
1,18,518518.8,105799999999,-1.17890874e-07,-0.0200000715,0.0337911661,-3.78182164e-05,6.21920967e-05,-0.02
1,18,518518.9,105899999999,-1.18135665e-07,-0.020000072,0.0337913176,-3.79428429e-05,6.21163374e-05,-0.02
1,18,518519,105999999999,-1.18378565e-07,-0.0200000725,0.0337914696,-3.80673176e-05,6.2040329e-05,-0.02
1,18,518519.1,106099999999,-1.18619571e-07,-0.0200000729,0.0337916221,-3.81916401e-05,6.19640721e-05,-0.02
1,18,518519.2,106199999999,-1.1885868e-07,-0.0200000734,0.0337917751,-3.83158097e-05,6.18875664e-05,-0.02
1,18,518519.3,106299999999,-1.19095886e-07,-0.0200000739,0.0337919286,-3.84398261e-05,6.18108129e-05,-0.02
1,18,518519.4,106399999999,-1.19331187e-07,-0.0200000744,0.0337920826,-3.85636886e-05,6.17338111e-05,-0.02
1,18,518519.5,106499999999,-1.19564579e-07,-0.0200000748,0.0337922371,-3.86873969e-05,6.16565618e-05,-0.02
1,18,518519.6,106599999999,-1.19796058e-07,-0.0200000753,0.0337923921,-3.88109505e-05,6.15790653e-05,-0.02
1,18,518519.7,106699999999,-1.2002562e-07,-0.0200000758,0.0337925476,-3.89343487e-05,6.15013218e-05,-0.02
1,18,518519.8,106799999999,-1.20253262e-07,-0.0200000763,0.0337927036,-3.90575912e-05,6.1423332e-05,-0.02
1,18,518519.9,106899999999,-1.20478979e-07,-0.0200000768,0.0337928601,-3.91806775e-05,6.13450955e-05,-0.02
1,18,518520,106999999999,-1.20702769e-07,-0.0200000772,0.033793017,-3.9303607e-05,6.12666131e-05,-0.02
1,18,518520.1,107099999999,-1.20924628e-07,-0.0200000777,0.0337931745,-3.94263792e-05,6.11878852e-05,-0.02
1,18,518520.2,107199999999,-1.21144552e-07,-0.0200000782,0.0337933324,-3.95489937e-05,6.11089114e-05,-0.02
1,18,518520.3,107299999999,-1.21362537e-07,-0.0200000787,0.0337934909,-3.96714501e-05,6.10296931e-05,-0.02
1,18,518520.4,107399999999,-1.21578581e-07,-0.0200000792,0.0337936498,-3.97937477e-05,6.09502298e-05,-0.02
1,18,518520.5,107499999999,-1.21792679e-07,-0.0200000797,0.0337938092,-3.99158861e-05,6.0870522e-05,-0.02
1,18,518520.6,107599999999,-1.22004829e-07,-0.0200000801,0.0337939691,-4.00378648e-05,6.07905701e-05,-0.02
1,18,518520.7,107699999999,-1.22215027e-07,-0.0200000806,0.0337941295,-4.01596833e-05,6.07103744e-05,-0.02
1,18,518520.8,107799999999,-1.22423269e-07,-0.0200000811,0.0337942904,-4.02813412e-05,6.06299353e-05,-0.02
1,18,518520.9,107899999999,-1.22629553e-07,-0.0200000816,0.0337944517,-4.0402838e-05,6.0549253e-05,-0.02
1,18,518521,107999999999,-1.22833874e-07,-0.0200000821,0.0337946136,-4.05241731e-05,6.04683279e-05,-0.02
1,18,518521.1,108099999999,-1.2303623e-07,-0.0200000826,0.0337947759,-4.0645346e-05,6.03871606e-05,-0.02
1,18,518521.2,108199999999,-1.23236618e-07,-0.0200000831,0.0337949387,-4.07663564e-05,6.03057505e-05,-0.02
1,18,518521.3,108299999999,-1.23435034e-07,-0.0200000836,0.033795102,-4.08872037e-05,6.02240991e-05,-0.02
1,18,518521.4,108399999999,-1.23631475e-07,-0.0200000841,0.0337952658,-4.10078874e-05,6.0142206e-05,-0.02
1,18,518521.5,108499999999,-1.23825937e-07,-0.0200000846,0.0337954301,-4.11284071e-05,6.00600716e-05,-0.02
1,18,518521.6,108599999999,-1.24018419e-07,-0.0200000851,0.0337955948,-4.12487622e-05,5.99776964e-05,-0.02
1,18,518521.7,108699999999,-1.24208916e-07,-0.0200000856,0.0337957601,-4.13689523e-05,5.98950806e-05,-0.02
1,18,518521.8,108799999999,-1.24397426e-07,-0.0200000861,0.0337959258,-4.14889769e-05,5.98122246e-05,-0.02
1,18,518521.9,108899999999,-1.24583945e-07,-0.0200000866,0.033796092,-4.16088355e-05,5.97291288e-05,-0.02
1,18,518522,108999999999,-1.24768472e-07,-0.0200000871,0.0337962586,-4.17285277e-05,5.96457934e-05,-0.02
1,18,518522.1,109099999999,-1.24951001e-07,-0.0200000876,0.0337964258,-4.18480529e-05,5.95622188e-05,-0.02
1,18,518522.2,109199999999,-1.25131532e-07,-0.0200000881,0.0337965934,-4.19674107e-05,5.94784053e-05,-0.02
1,18,518522.3,109299999999,-1.25310061e-07,-0.0200000886,0.0337967615,-4.20866006e-05,5.93943532e-05,-0.02
1,18,518522.4,109399999999,-1.25486584e-07,-0.0200000891,0.0337969301,-4.22056222e-05,5.9310063e-05,-0.02
1,18,518522.5,109499999999,-1.256611e-07,-0.0200000896,0.0337970991,-4.23244749e-05,5.92255346e-05,-0.02
1,18,518522.6,109599999999,-1.25833605e-07,-0.0200000901,0.0337972687,-4.24431583e-05,5.91407692e-05,-0.02
1,18,518522.7,109699999999,-1.26004097e-07,-0.0200000906,0.0337974387,-4.25616719e-05,5.90557661e-05,-0.02
1,18,518522.8,109799999999,-1.26172573e-07,-0.0200000911,0.0337976091,-4.26800152e-05,5.89705264e-05,-0.02
1,18,518522.9,109899999999,-1.2633903e-07,-0.0200000916,0.0337977801,-4.27981877e-05,5.88850502e-05,-0.02
1,18,518523,109999999999,-1.26503466e-07,-0.0200000921,0.0337979515,-4.29161891e-05,5.87993379e-05,-0.02
1,18,518523.1,110099999999,-1.26665877e-07,-0.0200000926,0.0337981234,-4.30340188e-05,5.87133897e-05,-0.02
1,18,518523.2,110199999999,-1.26826262e-07,-0.0200000931,0.0337982958,-4.31516763e-05,5.8627206e-05,-0.02
1,18,518523.3,110299999999,-1.26984618e-07,-0.0200000936,0.0337984686,-4.32691611e-05,5.85407869e-05,-0.02
1,18,518523.4,110399999999,-1.27140942e-07,-0.0200000941,0.0337986419,-4.33864729e-05,5.84541333e-05,-0.02
1,18,518523.5,110499999999,-1.27295232e-07,-0.0200000946,0.0337988157,-4.35036111e-05,5.83672453e-05,-0.02
1,18,518523.6,110599999999,-1.27447485e-07,-0.0200000951,0.0337989899,-4.36205753e-05,5.82801232e-05,-0.02
1,18,518523.7,110699999999,-1.27597699e-07,-0.0200000956,0.0337991646,-4.37373649e-05,5.81927673e-05,-0.02
1,18,518523.8,110799999999,-1.27745871e-07,-0.0200000962,0.0337993398,-4.38539796e-05,5.8105178e-05,-0.02
1,18,518523.9,110899999999,-1.27891999e-07,-0.0200000967,0.0337995155,-4.39704189e-05,5.80173553e-05,-0.02
1,18,518524,110999999999,-1.28036082e-07,-0.0200000972,0.0337996916,-4.40866822e-05,5.79293003e-05,-0.02
1,18,518524.1,111099999999,-1.28178115e-07,-0.0200000977,0.0337998681,-4.42027692e-05,5.78410129e-05,-0.02
1,18,518524.2,111199999999,-1.28318098e-07,-0.0200000982,0.0338000452,-4.43186793e-05,5.77524935e-05,-0.02
1,18,518524.3,111299999999,-1.28456027e-07,-0.0200000987,0.0338002227,-4.44344121e-05,5.76637425e-05,-0.02
1,18,518524.4,111399999999,-1.28591902e-07,-0.0200000992,0.0338004006,-4.45499672e-05,5.757476e-05,-0.02
1,18,518524.5,111499999999,-1.28725719e-07,-0.0200000997,0.0338005791,-4.4665344e-05,5.74855467e-05,-0.02
1,18,518524.6,111599999999,-1.28857476e-07,-0.0200001003,0.033800758,-4.47805422e-05,5.73961029e-05,-0.02
1,18,518524.7,111699999999,-1.28987171e-07,-0.0200001008,0.0338009373,-4.48955612e-05,5.73064289e-05,-0.02
1,18,518524.8,111799999999,-1.29114803e-07,-0.0200001013,0.0338011171,-4.50104006e-05,5.72165248e-05,-0.02
1,18,518524.9,111899999999,-1.29240369e-07,-0.0200001018,0.0338012974,-4.512506e-05,5.71263914e-05,-0.02
1,18,518525,111999999999,-1.29363867e-07,-0.0200001023,0.0338014781,-4.52395388e-05,5.70360289e-05,-0.02
1,18,518525.1,112099999999,-1.29485295e-07,-0.0200001028,0.0338016593,-4.53538366e-05,5.69454374e-05,-0.02
1,18,518525.2,112199999999,-1.29604652e-07,-0.0200001034,0.0338018409,-4.5467953e-05,5.68546177e-05,-0.02
1,18,518525.3,112299999999,-1.29721934e-07,-0.0200001039,0.033802023,-4.55818875e-05,5.676357e-05,-0.02
1,18,518525.4,112399999999,-1.29837142e-07,-0.0200001044,0.0338022056,-4.56956396e-05,5.66722946e-05,-0.02
1,18,518525.5,112499999999,-1.29950271e-07,-0.0200001049,0.0338023886,-4.5809209e-05,5.65807916e-05,-0.02
1,18,518525.6,112599999999,-1.30061322e-07,-0.0200001054,0.033802572,-4.59225951e-05,5.64890619e-05,-0.02
1,18,518525.7,112699999999,-1.30170292e-07,-0.020000106,0.0338027559,-4.60357974e-05,5.63971056e-05,-0.02
1,18,518525.8,112799999999,-1.30277179e-07,-0.0200001065,0.0338029403,-4.61488156e-05,5.63049229e-05,-0.02
1,18,518525.9,112899999999,-1.30381981e-07,-0.020000107,0.0338031251,-4.62616492e-05,5.62125145e-05,-0.02
1,18,518526,112999999999,-1.30484698e-07,-0.0200001075,0.0338033104,-4.63742977e-05,5.61198807e-05,-0.02
1,18,518526.1,113099999999,-1.30585326e-07,-0.020000108,0.0338034961,-4.64867607e-05,5.60270215e-05,-0.02
1,18,518526.2,113199999999,-1.30683866e-07,-0.0200001086,0.0338036822,-4.65990377e-05,5.59339379e-05,-0.02
1,18,518526.3,113299999999,-1.30780314e-07,-0.0200001091,0.0338038689,-4.67111283e-05,5.58406296e-05,-0.02
1,18,518526.4,113399999999,-1.3087467e-07,-0.0200001096,0.0338040559,-4.6823032e-05,5.57470976e-05,-0.02
1,18,518526.5,113499999999,-1.30966932e-07,-0.0200001101,0.0338042434,-4.69347484e-05,5.56533419e-05,-0.02
1,18,518526.6,113599999999,-1.31057098e-07,-0.0200001107,0.0338044314,-4.7046277e-05,5.55593628e-05,-0.02
1,18,518526.7,113699999999,-1.31145168e-07,-0.0200001112,0.0338046198,-4.71576174e-05,5.54651611e-05,-0.02
1,18,518526.8,113799999999,-1.31231139e-07,-0.0200001117,0.0338048086,-4.72687692e-05,5.53707368e-05,-0.02
1,18,518526.9,113899999999,-1.3131501e-07,-0.0200001122,0.0338049979,-4.73797319e-05,5.52760902e-05,-0.02
1,18,518527,113999999999,-1.31396781e-07,-0.0200001128,0.0338051877,-4.7490505e-05,5.51812221e-05,-0.02
1,18,518527.1,114099999999,-1.31476449e-07,-0.0200001133,0.0338053778,-4.76010881e-05,5.50861324e-05,-0.02
1,18,518527.2,114199999999,-1.31554013e-07,-0.0200001138,0.0338055685,-4.77114808e-05,5.4990822e-05,-0.02
1,18,518527.3,114299999999,-1.31629473e-07,-0.0200001143,0.0338057595,-4.78216827e-05,5.48952911e-05,-0.02
1,18,518527.4,114399999999,-1.31702826e-07,-0.0200001149,0.033805951,-4.79316932e-05,5.47995396e-05,-0.02
1,18,518527.5,114499999999,-1.31774073e-07,-0.0200001154,0.033806143,-4.8041512e-05,5.47035686e-05,-0.02
1,18,518527.6,114599999999,-1.31843211e-07,-0.0200001159,0.0338063353,-4.81511386e-05,5.46073778e-05,-0.02
1,18,518527.7,114699999999,-1.31910239e-07,-0.0200001164,0.0338065282,-4.82605725e-05,5.45109683e-05,-0.02
1,18,518527.8,114799999999,-1.31975157e-07,-0.020000117,0.0338067214,-4.83698134e-05,5.44143398e-05,-0.02
1,18,518527.9,114899999999,-1.32037963e-07,-0.0200001175,0.0338069151,-4.84788608e-05,5.43174933e-05,-0.02
1,18,518528,114999999999,-1.32098657e-07,-0.020000118,0.0338071092,-4.85877142e-05,5.42204289e-05,-0.02
1,18,518528.1,115099999999,-1.32157237e-07,-0.0200001186,0.0338073038,-4.86963733e-05,5.41231467e-05,-0.02
1,18,518528.2,115199999999,-1.32213703e-07,-0.0200001191,0.0338074988,-4.88048376e-05,5.40256477e-05,-0.02
1,18,518528.3,115299999999,-1.32268053e-07,-0.0200001196,0.0338076942,-4.89131066e-05,5.39279317e-05,-0.02
